unix_time,acc_x,acc_y,acc_z,gyr_x,gyr_y,gyr_z,rot_x,rot_y,rot_z,mag_x,mag_y,mag_z,lat,lng,bearing,speed,alt,err_lat,err_lng,pressure,station,run,walk,auto,cycling,unknown,
46323057.4092917,0.0530700684,-0.6997070312,-0.7327423096,,,,,,,,,,,,,,,,,,,,,,,,
46323116.6802917,,,,,-0.0398185194,0.0223939890,-0.0174767283,,,,,,,,,,,,,,,,,,,,
46323.1164397917,,,,,,,,,,,-97.3729400635,-128.6533660889,230.6795043945,,,,,,,,,,,,,,
46323162.66225,0.0439300537,-0.6774749756,-0.6994628906,,,,,,,,,,,,,,,,,,,,,,,,
46323217.7222083,,,,,-0.0425147036,0.0507835525,-0.0316298316,,,,,,,,,,,,,,,,,,,,
46323.2165257917,,,,,,,,,,,-97.0365905762,-129.9987640381,230.3525238037,,,,,,,,,,,,,,
46323267.9530833,0.0498504639,-0.6883697510,-0.7547760010,,,,,,,,,,,,,,,,,,,,,,,,
1451522717999.89,,,,,,,,,,,,,,52.49310158198,13.3853586483871,197.578125,1.12000000476837,36.7088012695312,10.0,3.0,,,,,,,
46323318.7591667,,,,,0.0078619179,0.0812101680,-0.0484671350,,,,,,,,,,,,,,,,,,,,
46323.317566875,,,,,,,,,,,-97.2047729492,-128.1488494873,229.8620605469,,,,,,,,,,,,,,
46323373.1511667,0.0549316406,-0.6812744141,-0.7179565430,,,,,,,,,,,,,,,,,,,,,,,,
46323419.903375,,,,,-0.0411751336,0.0542773535,-0.0316362232,,,,,,,,,,,,,,,,,,,,
46323.4186105833,,,,,,,,,,,-96.8684234619,-126.8034515381,230.1890411377,,,,,,,,,,,,,,
46323477.7719167,0.0475311279,-0.6827850342,-0.7331542969,,,,,,,,,,,,,,,,,,,,,,,,
46323520.3419167,,,,,0.0004660532,0.1295638523,-0.0200338956,,,,,,,,,,,,,,,,,,,,
46323.5192583333,,,,,,,,,,,-96.0275421143,-126.9716186523,229.0446319580,,,,,,,,,,,,,,
46323581.6855833,0.0569305420,-0.6912078857,-0.7440948486,,,,,,,,,,,,,,,,,,,,,,,,
46323621.3635417,,,,,0.0548659121,0.1820757964,0.0021169468,,,,,,,,,,,,,,,,,,,,
46323.620472125,,,,,,,,,,,-98.2138214111,-128.4851989746,229.2081146240,,,,,,,,,,,,,,
46323686.425125,0.0424041748,-0.6950225830,-0.6891021729,,,,,,,,,,,,,,,,,,,,,,,,
46323721.7418333,,,,,-0.0647520987,0.0821228333,-0.0551181135,,,,,,,,,,,,,,,,,,,,
46323.721574375,,,,,,,,,,,-96.1957244873,-127.8125000000,228.5541687012,,,,,,,,,,,,,,
46323790.7277083,0.0736846924,-0.6759338379,-0.7344818115,,,,,,,,,,,,,,,,,,,,,,,,
46323822.8327917,,,,,-0.1016885452,-0.1134767614,-0.0419855335,,,,,,,,,,,,,,,,,,,,
46323.8226825,,,,,,,,,,,-95.8593750000,-126.4671020508,230.1890411377,,,,,,,,,,,,,,
46323895.0242083,0.0554351807,-0.6800079346,-0.7324218750,,,,,,,,,,,,,,,,,,,,,,,,
46323923.757875,,,,,0.0098030960,0.0327638056,-0.0189542501,,,,,,,,,,,,,,,,,,,,
46323.923707625,,,,,,,,,,,-96.1957244873,-128.1488494873,228.5541687012,,,,,,,,,,,,,,
46323998.9388333,0.0519561768,-0.6833648682,-0.7250976562,,,,,,,,,,,,,,,,,,,,,,,,
46324024.7917083,,,,,0.0060815947,0.0647598219,-0.0437362956,,,,,,,,,,,,,,,,,,,,
46324.0247377917,,,,,,,,,,,-96.1957244873,-127.4761505127,228.5541687012,,,,,,,,,,,,,,
46324102.4650417,0.0640411377,-0.6690063477,-0.7176361084,,,,,,,,,,,,,,,,,,,,,,,,
46324125.809375,,,,,-0.0509976707,0.0122225778,-0.0422334738,,,,,,,,,,,,,,,,,,,,
46324.1257647083,,,,,,,,,,,-97.2047729492,-128.8215484619,228.8811492920,,,,,,,,,,,,,,
46324207.5823333,0.0447845459,-0.6806793213,-0.7635345459,,,,,,,,,,,,,,,,,,,,,,,,
46324226.8450417,,,,,0.0101730090,0.0775930626,-0.0437549378,,,,,,,,,,,,,,,,,,,,
46324.22678875,,,,,,,,,,,-96.5320739746,-127.8125000000,229.2081146240,,,,,,,,,,,,,,
46324312.81775,0.0518646240,-0.6770019531,-0.7350158691,,,,,,,,,,,,,,,,,,,,,,,,
1451522718999.89,,,,,,,,,,,,,,52.49310158198,13.3853586483871,197.578125,0.0,36.9293212890625,10.0,3.0,,,,,,,
46324327.901375,,,,,-0.0343550444,0.0387351454,-0.0210477610,,,,,,,,,,,,,,,,,,,,
46324.3278318333,,,,,,,,,,,-96.8684234619,-127.4761505127,229.2081146240,,,,,,,,,,,,,,
46324417.2595,0.0482330322,-0.6752624512,-0.7241058350,,,,,,,,,,,,,,,,,,,,,,,,
46324428.857,,,,,-0.0284944921,0.0610516364,-0.0482562126,,,,,,,,,,,,,,,,,,,,
46324.4288037917,,,,,,,,,,,-95.3548431396,-126.6352691650,228.7176666260,,,,,,,,,,,,,,
46324522.5530833,0.0123748779,-0.6665954590,-0.6461334229,,,,,,,,,,,,,,,,,,,,,,,,
46324529.8877083,,,,,-0.1163013101,-0.1129862071,-0.0596249810,,,,,,,,,,,,,,,,,,,,
46324.5298315,,,,,,,,,,,-96.5320739746,-127.1398010254,229.8620605469,,,,,,,,,,,,,,
46324627.7215417,-0.0851135254,-0.6249084473,-0.7707977295,,,,,,,,,,,,,,,,,,,,,,,,
46324631.0430833,,,,,-1.1762348965,0.6121070702,0.6574508499,,,,,,,,,,,,,,,,,,,,
46324.6309631667,,,,,,,,,,,-95.6911926270,-123.9444885254,230.3525238037,,,,,,,,,,,,,,
46324732.0685833,,,,,-0.3276825311,0.4947365010,-0.1006057039,,,,,,,,,,,,,,,,,,,,
46324732.1110833,0.0530242920,-0.6355590820,-0.8850097656,,,,,,,,,,,,,,,,,,,,,,,,
46324.7320018333,,,,,,,,,,,-90.9823150635,-122.2627410889,228.3906860352,,,,,,,,,,,,,,
46324833.13075,,,,,0.5038786004,0.5357680902,-0.0748950141,,,,,,,,,,,,,,,,,,,,
46324837.3985417,0.1902923584,-0.5454101562,-0.8242187500,,,,,,,,,,,,,,,,,,,,,,,,
46324.8330521667,,,,,,,,,,,-88.7960510254,-122.7672729492,224.9574737549,,,,,,,,,,,,,,
46324934.18225,,,,,0.5946119661,0.1901912471,0.0272159084,,,,,,,,,,,,,,,,,,,,
46324941.811125,0.1492919922,-0.5472717285,-0.7012329102,,,,,,,,,,,,,,,,,,,,,,,,
46324.9340927083,,,,,,,,,,,-88.9642333984,-125.9625854492,224.7939910889,,,,,,,,,,,,,,
46325035.2192083,,,,,-0.1462919661,-0.1251054543,-0.0547215688,,,,,,,,,,,,,,,,,,,,
46325.035140625,,,,,,,,,,,-88.2915344238,-123.9444885254,224.1400451660,,,,,,,,,,,,,,
46325047.0528333,0.0852813721,-0.6145935059,-0.7083435059,,,,,,,,,,,,,,,,,,,,,,,,
46325136.2974167,,,,,-0.5367705040,0.0140772032,-0.2792124666,,,,,,,,,,,,,,,,,,,,
46325.13619225,,,,,,,,,,,-89.1324005127,-122.0945739746,224.6304931641,,,,,,,,,,,,,,
46325152.2769167,0.1641693115,-0.5835113525,-0.8752136230,,,,,,,,,,,,,,,,,,,,,,,,
46325236.8351667,,,,,-0.3695972245,-0.3724843574,-0.1846745089,,,,,,,,,,,,,,,,,,,,
46325.23667125,,,,,,,,,,,-85.9370880127,-119.5719604492,223.4860992432,,,,,,,,,,,,,,
46325257.4896667,0.0396575928,-0.5807800293,-1.0091247559,,,,,,,,,,,,,,,,,,,,,,,,
1451522719999.89,,,,,,,,,,,,,,52.49310158198,13.3853586483871,197.578125,0.0,36.873291015625,10.0,3.0,,,,,,,
46325337.9072083,,,,,0.3648421504,-0.2456744800,-0.0283277782,,,,,,,,,,,,,,,,,,,,
46325.33781925,,,,,,,,,,,-88.1233520508,-121.7582244873,223.9765472412,,,,,,,,,,,,,,
46325362.8483333,0.0510711670,-0.6042175293,-0.6355590820,,,,,,,,,,,,,,,,,,,,,,,,
46325439.1304167,,,,,-0.2992583464,0.1981327935,-0.3006565060,,,,,,,,,,,,,,,,,,,,
46325.4388628333,,,,,,,,,,,-86.9461364746,-119.9083099365,220.5433349609,,,,,,,,,,,,,,
46325468.1865,0.2323760986,-0.5141296387,-0.7831573486,,,,,,,,,,,,,,,,,,,,,,,,
46325539.847625,,,,,0.4841730725,-0.2363337088,0.2983355611,,,,,,,,,,,,,,,,,,,,
46325.5397849167,,,,,,,,,,,-85.2643890381,-120.2446441650,216.9466247559,,,,,,,,,,,,,,
46325572.4255417,-0.0030059814,-0.5977478027,-0.6729431152,,,,,,,,,,,,,,,,,,,,,,,,
46325640.9122083,,,,,0.5725553996,-0.0272420074,0.0922508349,,,,,,,,,,,,,,,,,,,,
46325.6408350833,,,,,,,,,,,-81.7327270508,-121.7582244873,211.8785552979,,,,,,,,,,,,,,
46325677.6147917,0.2382202148,-0.6318664551,-1.1660308838,,,,,,,,,,,,,,,,,,,,,,,,
46325741.3468333,,,,,1.6837242107,-0.5010639054,0.5615954265,,,,,,,,,,,,,,,,,,,,
46325.7412615833,,,,,,,,,,,-79.8828125000,-119.5719604492,211.3880920410,,,,,,,,,,,,,,
46325782.1859583,0.0727996826,-0.5256652832,-0.5580902100,,,,,,,,,,,,,,,,,,,,,,,,
46325842.382875,,,,,1.0358543492,-0.0552832295,0.5456380315,,,,,,,,,,,,,,,,,,,,
46325.8423017083,,,,,,,,,,,-84.4235229492,-128.4851989746,216.4561767578,,,,,,,,,,,,,,
46325887.3930833,-0.0792846680,-0.8335266113,-0.6684570312,,,,,,,,,,,,,,,,,,,,,,,,
46325943.5531667,,,,,-0.0634732488,0.2161014077,-0.2867116619,,,,,,,,,,,,,,,,,,,,
46325.9433408333,,,,,,,,,,,-82.2372589111,-128.3170166016,215.6387329102,,,,,,,,,,,,,,
46325992.1280417,0.1387786865,-0.7639007568,-0.5911560059,,,,,,,,,,,,,,,,,,,,,,,,
46326044.4365417,,,,,-0.1719094452,0.2121743104,-0.3002394550,,,,,,,,,,,,,,,,,,,,
46326.0443740833,,,,,,,,,,,-80.7236785889,-128.4851989746,214.4943389893,,,,,,,,,,,,,,
46326097.4060833,0.1703796387,-0.7128143311,-0.6572723389,,,,,,,,,,,,,,,,,,,,,,,,
46326145.2329167,,,,,0.0111594439,0.0345281498,0.1098633844,,,,,,,,,,,,,,,,,,,,
46326.1451675833,,,,,,,,,,,-80.3873291016,-127.8125000000,214.1673583984,,,,,,,,,,,,,,
46326202.785625,0.1199951172,-0.7663574219,-0.6298675537,,,,,,,,,,,,,,,,,,,,,,,,
46326246.3353333,,,,,-0.0613688189,0.1404716275,0.0418033733,,,,,,,,,,,,,,,,,,,,
46326.2462860417,,,,,,,,,,,-80.5555114746,-126.6352691650,215.3117675781,,,,,,,,,,,,,,
1451522720999.89,,,,,,,,,,,,,,52.49310158198,13.3853586483871,197.578125,0.0,36.8706665039062,10.0,3.0,,,,,,,
46326307.1695,0.1651763916,-0.6793670654,-0.7183380127,,,,,,,,,,,,,,,,,,,,,,,,
46326346.7019583,,,,,0.3921981411,-0.0368980969,0.5188173362,,,,,,,,,,,,,,,,,,,,
46326.3466042917,,,,,,,,,,,-80.5555114746,-129.3260650635,217.6005706787,,,,,,,,,,,,,,
46326412.2265833,0.0288238525,-0.7680053711,-0.5898132324,,,,,,,,,,,,,,,,,,,,,,,,
46326447.707,,,,,0.5845105961,-0.1031428974,0.6937217723,,,,,,,,,,,,,,,,,,,,
46326.44764175,,,,,,,,,,,-84.0871734619,-134.5394744873,220.0528717041,,,,,,,,,,,,,,
46326517.4344167,0.0040740967,-0.8749694824,-0.3998413086,,,,,,,,,,,,,,,,,,,,,,,,
46326548.7585833,,,,,0.2489914472,0.1589896518,0.5327781592,,,,,,,,,,,,,,,,,,,,
46326.5486852083,,,,,,,,,,,-86.1052551270,-135.2121734619,223.6495819092,,,,,,,,,,,,,,
46326622.6205417,-0.1914520264,-0.9858245850,-0.2289123535,,,,,,,,,,,,,,,,,,,,,,,,
46326649.8205833,,,,,0.4949777834,0.1884444798,0.8208634796,,,,,,,,,,,,,,,,,,,,
46326.6497375417,,,,,,,,,,,-86.2734375000,-136.0530395508,227.0827941895,,,,,,,,,,,,,,
46326727.8335833,-0.3565368652,-1.1031951904,-0.1008148193,,,,,,,,,,,,,,,,,,,,,,,,
46326750.8414583,,,,,-0.2159831634,0.1491655169,0.1361130980,,,,,,,,,,,,,,,,,,,,
46326.75077525,,,,,,,,,,,-86.2734375000,-133.6985931396,228.3906860352,,,,,,,,,,,,,,
46326833.036375,-0.1563262939,-1.0452270508,-0.1576385498,,,,,,,,,,,,,,,,,,,,,,,,
46326851.8785417,,,,,-0.3882321616,0.2851963232,-0.2492553664,,,,,,,,,,,,,,,,,,,,
46326.8518125417,,,,,,,,,,,-85.9370880127,-133.6985931396,227.0827941895,,,,,,,,,,,,,,
46326938.2360417,-0.1700744629,-1.0806427002,-0.2038421631,,,,,,,,,,,,,,,,,,,,,,,,
46326952.941375,,,,,-0.5660056212,0.1513660869,-0.5318937234,,,,,,,,,,,,,,,,,,,,
46326.9528605833,,,,,,,,,,,-83.7508239746,-132.1850280762,226.2653656006,,,,,,,,,,,,,,
46327043.4371667,-0.0811920166,-1.0045471191,-0.3273315430,,,,,,,,,,,,,,,,,,,,,,,,
46327054.1084583,,,,,-0.9544180788,0.2305541166,-0.7800627865,,,,,,,,,,,,,,,,,,,,
46327.0538997917,,,,,,,,,,,-82.7417755127,-128.8215484619,227.5732574463,,,,,,,,,,,,,,
46327148.6469583,0.0138092041,-0.9299163818,-0.3485717773,,,,,,,,,,,,,,,,,,,,,,,,
46327155.0194583,,,,,-1.0006763880,0.3098438791,-0.8459310160,,,,,,,,,,,,,,,,,,,,
46327.1549429167,,,,,,,,,,,-79.5464630127,-127.6443176270,225.1209564209,,,,,,,,,,,,,,
46327253.1221667,0.1301269531,-0.8406829834,-0.6166381836,,,,,,,,,,,,,,,,,,,,,,,,
46327255.98075,,,,,-1.2178635665,0.1556641626,-1.0633365737,,,,,,,,,,,,,,,,,,,,
46327.2558964167,,,,,,,,,,,-80.5555114746,-122.5990905762,224.4670104980,,,,,,,,,,,,,,
1451522721999.89,,,,,,,,,,,,,,52.49310158198,13.3853586483871,197.578125,0.0,36.767578125,10.0,3.0,,,,,,,
46327357.0682917,,,,,0.6056323930,-0.4911614735,0.1721997298,,,,,,,,,,,,,,,,,,,,
46327357.3107917,0.0502471924,-0.7909393311,-0.6270751953,,,,,,,,,,,,,,,,,,,,,,,,
46327.356961375,,,,,,,,,,,-84.9280395508,-121.9263916016,223.8130645752,,,,,,,,,,,,,,
46327458.1887083,,,,,0.6181484511,-0.1323508504,0.1439278780,,,,,,,,,,,,,,,,,,,,
46327461.795,-0.0379333496,-0.8913116455,-0.5278930664,,,,,,,,,,,,,,,,,,,,,,,,
46327.457997,,,,,,,,,,,-89.4687500000,-120.7491760254,224.6304931641,,,,,,,,,,,,,,
46327559.166375,,,,,0.4482321157,-0.5875335502,0.3539365057,,,,,,,,,,,,,,,,,,,,
46327567.0049583,0.0891418457,-0.8180084229,-0.7575683594,,,,,,,,,,,,,,,,,,,,,,,,
46327.5590515,,,,,,,,,,,-91.3186645508,-119.2356109619,226.4288482666,,,,,,,,,,,,,,
46327660.1655833,,,,,0.1540992891,-0.0350147094,0.2827017402,,,,,,,,,,,,,,,,,,,,
46327.6600941667,,,,,,,,,,,-91.8231964111,-120.0764770508,226.5923309326,,,,,,,,,,,,,,
46327671.6174167,0.0295867920,-0.9167175293,-0.5116729736,,,,,,,,,,,,,,,,,,,,,,,,
46327761.342625,,,,,-0.1024289039,0.3769400923,-0.2013043521,,,,,,,,,,,,,,,,,,,,
46327.7611357083,,,,,,,,,,,-94.1776275635,-121.0855255127,227.9002227783,,,,,,,,,,,,,,
46327776.868375,0.1068572998,-0.8545379639,-0.5026702881,,,,,,,,,,,,,,,,,,,,,,,,
46327862.249625,,,,,0.0935738933,-0.0397828330,-0.1270476977,,,,,,,,,,,,,,,,,,,,
46327.8621775,,,,,,,,,,,-92.8322296143,-122.7672729492,226.9193115234,,,,,,,,,,,,,,
46327882.0559167,-0.0387878418,-0.7511444092,-0.5975341797,,,,,,,,,,,,,,,,,,,,,,,,
46327963.2893333,,,,,-0.1374396186,0.3521561825,-0.2294691448,,,,,,,,,,,,,,,,,,,,
46327.9632182917,,,,,,,,,,,-93.1685791016,-123.1036071777,224.9574737549,,,,,,,,,,,,,,
46327987.2589167,0.1911468506,-0.7592926025,-0.7883453369,,,,,,,,,,,,,,,,,,,,,,,,
46328064.39875,,,,,0.5870262180,0.5517206914,0.5971009564,,,,,,,,,,,,,,,,,,,,
46328.0642615833,,,,,,,,,,,-93.6731109619,-122.5990905762,226.4288482666,,,,,,,,,,,,,,
46328091.4995,0.1024475098,-0.9977874756,-0.6408386230,,,,,,,,,,,,,,,,,,,,,,,,
46328165.4327083,,,,,1.2826185947,1.3899024413,0.3805428166,,,,,,,,,,,,,,,,,,,,
46328.1653083333,,,,,,,,,,,-91.3186645508,-127.6443176270,227.4097747803,,,,,,,,,,,,,,
46328193.9035,0.0424194336,-1.0902557373,0.0484161377,,,,,,,,,,,,,,,,,,,,,,,,
46328265.6644167,,,,,-0.3916753626,0.2488588217,-0.5376315040,,,,,,,,,,,,,,,,,,,,
46328.2655950833,,,,,,,,,,,-90.9823150635,-124.9535369873,226.1018829346,,,,,,,,,,,,,,
1451522722999.89,,,,,,,,,,,,,,52.49310158198,13.3853586483871,197.578125,0.0,36.6093139648438,10.0,3.0,,,,,,,
46328297.6551667,0.1072998047,-0.8693389893,-0.5202789307,,,,,,,,,,,,,,,,,,,,,,,,
46328366.69,,,,,-0.7890653362,0.0555069350,-0.3095748999,,,,,,,,,,,,,,,,,,,,
46328.36662425,,,,,,,,,,,-91.4868469238,-121.7582244873,226.9193115234,,,,,,,,,,,,,,
46328402.80875,0.0979003906,-0.8262176514,-0.6849975586,,,,,,,,,,,,,,,,,,,,,,,,
46328467.7100417,,,,,0.1096391463,0.2022633564,-0.1270306535,,,,,,,,,,,,,,,,,,,,
46328.4676505833,,,,,,,,,,,-93.3367614746,-122.2627410889,227.0827941895,,,,,,,,,,,,,,
46328506.5112917,0.1161193848,-0.8865966797,-0.5129699707,,,,,,,,,,,,,,,,,,,,,,,,
46328568.7487083,,,,,0.1916732963,-0.0189619733,0.1335644529,,,,,,,,,,,,,,,,,,,,
46328.5686875417,,,,,,,,,,,-96.1957244873,-125.1217041016,228.5541687012,,,,,,,,,,,,,,
46328610.84025,-0.2732238770,-0.8069915771,-1.1931762695,,,,,,,,,,,,,,,,,,,,,,,,
46328669.75875,,,,,0.9286610500,0.1484179676,0.1457247127,,,,,,,,,,,,,,,,,,,,
46328.669709875,,,,,,,,,,,-95.5230255127,-129.8305816650,229.5350952148,,,,,,,,,,,,,,
46328715.4812083,0.0353240967,-0.8690185547,-0.3800354004,,,,,,,,,,,,,,,,,,,,,,,,
46328770.7920417,,,,,0.0342080379,-0.2511075950,0.1332267641,,,,,,,,,,,,,,,,,,,,
46328.7707387917,,,,,,,,,,,-98.5501556396,-129.1578826904,230.8429870605,,,,,,,,,,,,,,
46328820.2369167,0.0003356934,-0.9148559570,-0.4057312012,,,,,,,,,,,,,,,,,,,,,,,,
46328871.8345417,,,,,-0.0449957045,-0.1075203353,-0.1593329333,,,,,,,,,,,,,,,,,,,,
46328.871775,,,,,,,,,,,-98.2138214111,-130.1669311523,231.8239135742,,,,,,,,,,,,,,
46328925.3920833,-0.0047454834,-0.9611358643,-0.3928833008,,,,,,,,,,,,,,,,,,,,,,,,
46328972.9429167,,,,,-0.4639295861,-0.0006514092,-0.0716488870,,,,,,,,,,,,,,,,,,,,
46328.972891,,,,,,,,,,,-99.2228546143,-129.1578826904,233.7857513428,,,,,,,,,,,,,,
46329029.5366667,0.0688934326,-0.9299774170,-0.6940307617,,,,,,,,,,,,,,,,,,,,,,,,
46329073.8181667,,,,,0.1615263128,0.1132850138,-0.0351997991,,,,,,,,,,,,,,,,,,,,
46329.0737602917,,,,,,,,,,,-101.0727844238,-128.6533660889,233.2952880859,,,,,,,,,,,,,,
46329134.2205833,0.0529479980,-0.8732452393,-0.4483337402,,,,,,,,,,,,,,,,,,,,,,,,
46329174.6213333,,,,,0.0023294670,0.1483710959,-0.0259458469,,,,,,,,,,,,,,,,,,,,
46329.1745546667,,,,,,,,,,,-102.7545166016,-126.6352691650,235.2571258545,,,,,,,,,,,,,,
46329238.5190417,0.0690002441,-0.9085845947,-0.5343017578,,,,,,,,,,,,,,,,,,,,,,,,
46329275.6368333,,,,,-0.2289487631,-0.1031130700,0.0308849455,,,,,,,,,,,,,,,,,,,,
46329.2755784167,,,,,,,,,,,-103.0908660889,-124.6171875000,235.5840911865,,,,,,,,,,,,,,
46329343.3636667,0.0189971924,-0.8681488037,-0.5506439209,,,,,,,,,,,,,,,,,,,,,,,,
1451522723999.89,,,,,,,,,,,,,,52.4931079103169,13.385397791875,137.4609375,1.83000004291534,36.6889038085938,10.0,3.0,,,,,,,
46329376.6536667,,,,,0.1814395672,0.1731467499,-0.1262974852,,,,,,,,,,,,,,,,,,,,
46329.376603,,,,,,,,,,,-103.4272155762,-125.2898864746,234.9301452637,,,,,,,,,,,,,,
46329447.5795,0.0417938232,-0.9158935547,-0.4651489258,,,,,,,,,,,,,,,,,,,,,,,,
46329477.7170833,,,,,-0.1914666350,0.0434183142,-0.0732787416,,,,,,,,,,,,,,,,,,,,
46329.4776297917,,,,,,,,,,,-102.5863494873,-124.1126556396,232.4778594971,,,,,,,,,,,,,,
46329552.3002083,0.0643005371,-0.8662872314,-0.5476684570,,,,,,,,,,,,,,,,,,,,,,,,
46329578.6582083,,,,,0.0278649208,0.0332213367,0.0293935753,,,,,,,,,,,,,,,,,,,,
46329.5786000833,,,,,,,,,,,-103.2590484619,-124.1126556396,234.7666625977,,,,,,,,,,,,,,
46329657.37025,0.0699157715,-0.9149932861,-0.4494171143,,,,,,,,,,,,,,,,,,,,,,,,
46329679.1165833,,,,,0.1768368259,0.3932807161,-0.0954370408,,,,,,,,,,,,,,,,,,,,
46329.6790751667,,,,,,,,,,,-103.4272155762,-123.6081390381,234.9301452637,,,,,,,,,,,,,,
46329762.670375,0.0764617920,-0.9523162842,-0.5477600098,,,,,,,,,,,,,,,,,,,,,,,,
46329780.326375,,,,,-0.1440296107,-0.0556539415,-0.0688850584,,,,,,,,,,,,,,,,,,,,
46329.7801083333,,,,,,,,,,,-104.4362640381,-123.6081390381,234.9301452637,,,,,,,,,,,,,,
46329867.9313333,0.0660095215,-0.8559112549,-0.4598541260,,,,,,,,,,,,,,,,,,,,,,,,
46329881.2326667,,,,,0.1362731540,-0.0800434371,-0.0800495624,,,,,,,,,,,,,,,,,,,,
46329.8811467083,,,,,,,,,,,-103.9317474365,-122.7672729492,233.4587707520,,,,,,,,,,,,,,
46329972.6750833,0.0024108887,-0.8791656494,-0.5177612305,,,,,,,,,,,,,,,,,,,,,,,,
46329982.2805,,,,,-0.1898173393,-0.0695479192,-0.0946159883,,,,,,,,,,,,,,,,,,,,
46329.9821951667,,,,,,,,,,,-102.5863494873,-121.7582244873,231.1699676514,,,,,,,,,,,,,,
46330078.094,0.0851898193,-0.8548278809,-0.4512329102,,,,,,,,,,,,,,,,,,,,,,,,
46330083.391625,,,,,0.0582867426,-0.0159568623,0.0410046913,,,,,,,,,,,,,,,,,,,,
46330.083310375,,,,,,,,,,,-99.7273864746,-122.5990905762,228.0637207031,,,,,,,,,,,,,,
46330183.3785417,0.0661163330,-0.9515228271,-0.6500244141,,,,,,,,,,,,,,,,,,,,,,,,
46330184.4182917,,,,,-0.1571765717,-0.0289933022,-0.1597981875,,,,,,,,,,,,,,,,,,,,
46330.1834435417,,,,,,,,,,,-99.7273864746,-123.9444885254,227.0827941895,,,,,,,,,,,,,,
46330284.5818333,,,,,0.0502325445,0.0361641297,0.0186224202,,,,,,,,,,,,,,,,,,,,
46330288.6837917,0.0716857910,-0.8267211914,-0.4684906006,,,,,,,,,,,,,,,,,,,,,,,,
46330.2844920833,,,,,,,,,,,-98.2138214111,-126.8034515381,227.9002227783,,,,,,,,,,,,,,
1451522724999.89,,,,,,,,,,,,,,52.4930997798708,13.3854581415778,118.4765625,3.33999991416931,36.866455078125,10.0,3.0,,,,,,,
46330385.592875,,,,,-0.0228709611,-0.0217284650,0.0024919198,,,,,,,,,,,,,,,,,,,,
46330392.653125,0.0568237305,-0.9210357666,-0.5348510742,,,,,,,,,,,,,,,,,,,,,,,,
46330.3855212083,,,,,,,,,,,-98.0456390381,-127.6443176270,227.4097747803,,,,,,,,,,,,,,
46330486.656875,,,,,0.0044613275,-0.0200682504,-0.0165832378,,,,,,,,,,,,,,,,,,,,
46330.4865620417,,,,,,,,,,,-98.8865051270,-127.8125000000,229.8620605469,,,,,,,,,,,,,,
46330497.198875,0.0473937988,-0.9168395996,-0.4990539551,,,,,,,,,,,,,,,,,,,,,,,,
46330587.7400417,,,,,0.0669510709,-0.1171173026,-0.0347356101,,,,,,,,,,,,,,,,,,,,
46330.5876498333,,,,,,,,,,,-99.0546875000,-126.6352691650,227.7367401123,,,,,,,,,,,,,,
46330602.2264583,0.0269622803,-0.8734893799,-0.5233764648,,,,,,,,,,,,,,,,,,,,,,,,
46330688.7950417,,,,,0.0284183257,-0.0576049733,0.0683494967,,,,,,,,,,,,,,,,,,,,
46330.6887016667,,,,,,,,,,,-97.3729400635,-129.9987640381,224.4670104980,,,,,,,,,,,,,,
46330707.2637083,0.0697937012,-0.7003479004,-0.4957122803,,,,,,,,,,,,,,,,,,,,,,,,
46330789.2468333,,,,,-0.4383078459,0.2676729896,0.0512384204,,,,,,,,,,,,,,,,,,,,
46330.7891385833,,,,,,,,,,,-94.8503265381,-129.8305816650,224.3035278320,,,,,,,,,,,,,,
46330812.3012917,0.0194854736,-0.6313323975,-0.7320861816,,,,,,,,,,,,,,,,,,,,,,,,
46330890.2235,,,,,-0.1237815969,0.3297848304,-0.0440063402,,,,,,,,,,,,,,,,,,,,
46330.8901696667,,,,,,,,,,,-93.6731109619,-131.0078125000,224.1400451660,,,,,,,,,,,,,,
46330915.774125,0.0392761230,-0.6977386475,-0.8082275391,,,,,,,,,,,,,,,,,,,,,,,,
46330991.3514583,,,,,0.0115698370,-0.1114703359,0.1133377444,,,,,,,,,,,,,,,,,,,,
46330.9912717917,,,,,,,,,,,-92.4958801270,-133.5304260254,226.5923309326,,,,,,,,,,,,,,
46331020.4748333,0.0658264160,-0.6415863037,-0.6881103516,,,,,,,,,,,,,,,,,,,,,,,,
46331092.0697917,,,,,-0.1465361779,0.0459086361,-0.1279161545,,,,,,,,,,,,,,,,,,,,
46331.0920003333,,,,,,,,,,,-94.5139770508,-133.5304260254,228.5541687012,,,,,,,,,,,,,,
46331125.7657083,0.0733337402,-0.8988647461,-0.8355407715,,,,,,,,,,,,,,,,,,,,,,,,
46331193.132125,,,,,0.3174112514,0.1271949705,-0.1933287172,,,,,,,,,,,,,,,,,,,,
46331.19305,,,,,,,,,,,-98.2138214111,-132.5213775635,231.1699676514,,,,,,,,,,,,,,
46331230.1920833,0.0244750977,-0.9323577881,-0.5435638428,,,,,,,,,,,,,,,,,,,,,,,,
46331293.4227083,,,,,0.5274507718,-0.2711225821,0.1633220823,,,,,,,,,,,,,,,,,,,,
46331.2934040417,,,,,,,,,,,-101.7454681396,-132.0168609619,233.9492340088,,,,,,,,,,,,,,
1451522725999.89,,,,,,,,,,,,,,52.493076394361,13.385667605338,111.09375,8.84000015258789,36.7634887695312,10.0,3.0,,,,,,,
46331335.45275,0.1590728760,-0.9135589600,-0.2712249756,,,,,,,,,,,,,,,,,,,,,,,,
46331393.9727083,,,,,0.0929563063,0.1531123216,-0.0844048960,,,,,,,,,,,,,,,,,,,,
46331.39389675,,,,,,,,,,,-102.5863494873,-131.1759796143,232.4778594971,,,,,,,,,,,,,,
46331440.7246667,-0.0256042480,-0.9716491699,-0.4064941406,,,,,,,,,,,,,,,,,,,,,,,,
46331495.0299167,,,,,0.0011978899,0.2238599949,-0.0530866542,,,,,,,,,,,,,,,,,,,,
46331.4949506667,,,,,,,,,,,-102.7545166016,-128.6533660889,231.6604156494,,,,,,,,,,,,,,
46331545.1942083,0.0718231201,-0.8489379883,-0.3914794922,,,,,,,,,,,,,,,,,,,,,,,,
46331596.0917083,,,,,0.0335995056,-0.0651776719,-0.1219685169,,,,,,,,,,,,,,,,,,,,
46331.59601975,,,,,,,,,,,-102.2500000000,-131.1759796143,233.1318054199,,,,,,,,,,,,,,
46331650.4579583,0.1315612793,-0.9762420654,-0.4051361084,,,,,,,,,,,,,,,,,,,,,,,,
46331697.143375,,,,,-0.2062932517,-0.0809031055,-0.0827026034,,,,,,,,,,,,,,,,,,,,
46331.6970670833,,,,,,,,,,,-102.9226989746,-129.8305816650,233.4587707520,,,,,,,,,,,,,,
46331754.3789583,0.0762481689,-0.9754028320,-0.4925842285,,,,,,,,,,,,,,,,,,,,,,,,
46331798.231375,,,,,0.1326379391,0.0332098851,0.1623116790,,,,,,,,,,,,,,,,,,,,
46331.798107375,,,,,,,,,,,-103.7635650635,-126.2989196777,229.3716125488,,,,,,,,,,,,,,
46331859.6739167,-0.0145721436,-0.9699096680,-0.4074249268,,,,,,,,,,,,,,,,,,,,,,,,
46331899.23125,,,,,0.0480879009,0.1158411158,-0.1550641524,,,,,,,,,,,,,,,,,,,,
46331.8991502083,,,,,,,,,,,-102.2500000000,-129.4942321777,226.5923309326,,,,,,,,,,,,,,
46331964.85175,0.1025238037,-0.8063049316,-0.4765930176,,,,,,,,,,,,,,,,,,,,,,,,
46331999.9780417,,,,,-0.4981458798,-0.2170923699,-0.1578210567,,,,,,,,,,,,,,,,,,,,
46331.9998792083,,,,,,,,,,,-97.2047729492,-131.5123291016,225.2844390869,,,,,,,,,,,,,,
46332070.1742083,0.0437622070,-0.9073638916,-0.6166992188,,,,,,,,,,,,,,,,,,,,,,,,
46332100.3835417,,,,,0.1599063119,0.0963289335,0.0865356912,,,,,,,,,,,,,,,,,,,,
46332.1002937917,,,,,,,,,,,-96.8684234619,-134.5394744873,224.9574737549,,,,,,,,,,,,,,
46332175.6486667,-0.0253753662,-0.8591766357,-0.5111083984,,,,,,,,,,,,,,,,,,,,,,,,
46332201.4335417,,,,,0.0593506754,0.0030671626,-0.2851928611,,,,,,,,,,,,,,,,,,,,
46332.2013425417,,,,,,,,,,,-98.2138214111,-134.2031250000,227.5732574463,,,,,,,,,,,,,,
46332280.099625,0.0484313965,-0.8069458008,-0.4255371094,,,,,,,,,,,,,,,,,,,,,,,,
46332302.4697083,,,,,-0.1326981266,0.2295461102,0.0564600804,,,,,,,,,,,,,,,,,,,,
46332.3023874583,,,,,,,,,,,-97.8774719238,-134.8758239746,229.8620605469,,,,,,,,,,,,,,
1451522726999.89,,,,,,,,,,,,,,52.4930444174004,13.3858336508399,110.0390625,10.4899997711182,36.739013671875,10.0,3.0,,,,,,,
46332385.3405417,0.0818634033,-0.8958282471,-0.7709655762,,,,,,,,,,,,,,,,,,,,,,,,
46332403.573375,,,,,0.2163669249,0.0801374467,-0.0804596892,,,,,,,,,,,,,,,,,,,,
46332.4034477083,,,,,,,,,,,-98.0456390381,-133.0258941650,229.0446319580,,,,,,,,,,,,,,
46332490.4889583,0.0465545654,-0.8284759521,-0.4642944336,,,,,,,,,,,,,,,,,,,,,,,,
46332504.5972083,,,,,0.0897490614,0.0379950530,-0.1210784884,,,,,,,,,,,,,,,,,,,,
46332.5045,,,,,,,,,,,-98.5501556396,-132.5213775635,228.8811492920,,,,,,,,,,,,,,
46332594.8859167,0.1550750732,-0.8626098633,-0.4664916992,,,,,,,,,,,,,,,,,,,,,,,,
46332605.6889167,,,,,-0.0538187572,0.3915139750,0.1967029423,,,,,,,,,,,,,,,,,,,,
46332.6056421667,,,,,,,,,,,-97.2047729492,-132.8577270508,229.2081146240,,,,,,,,,,,,,,
46332700.1316667,0.1974639893,-0.9632873535,-0.6179046631,,,,,,,,,,,,,,,,,,,,,,,,
46332706.7837083,,,,,0.0928356651,0.2133937718,0.1342725874,,,,,,,,,,,,,,,,,,,,
46332.706695125,,,,,,,,,,,-96.8684234619,-133.5304260254,229.8620605469,,,,,,,,,,,,,,
46332805.211375,0.0331420898,-0.8606109619,-0.5503387451,,,,,,,,,,,,,,,,,,,,,,,,
46332807.8292917,,,,,0.0586654441,0.2696064445,-0.1207810133,,,,,,,,,,,,,,,,,,,,
46332.8077412083,,,,,,,,,,,-98.2138214111,-132.5213775635,232.8048248291,,,,,,,,,,,,,,
46332908.8343333,,,,,0.3662198036,-0.3320735511,0.0709013377,,,,,,,,,,,,,,,,,,,,
46332908.8918333,0.0277862549,-0.9463653564,-0.5265197754,,,,,,,,,,,,,,,,,,,,,,,,
46332.9087708333,,,,,,,,,,,-101.2409515381,-132.5213775635,233.7857513428,,,,,,,,,,,,,,
46333009.859375,,,,,0.5459938298,-0.0204490824,-0.2184204884,,,,,,,,,,,,,,,,,,,,
46333013.778375,0.0641479492,-0.8630218506,-0.5770721436,,,,,,,,,,,,,,,,,,,,,,,,
46333.009756625,,,,,,,,,,,-101.5773010254,-130.8396301270,234.4396972656,,,,,,,,,,,,,,
46333110.9079167,,,,,0.1755009843,0.1333836242,-0.4229334169,,,,,,,,,,,,,,,,,,,,
46333119.16775,0.0273895264,-0.8394317627,-0.4366302490,,,,,,,,,,,,,,,,,,,,,,,,
46333.1108214583,,,,,,,,,,,-102.4181671143,-132.3531951904,234.6031799316,,,,,,,,,,,,,,
46333211.9749583,,,,,0.5977084235,0.0975859455,-0.0851250148,,,,,,,,,,,,,,,,,,,,
46333.2118805417,,,,,,,,,,,-102.5863494873,-135.2121734619,233.7857513428,,,,,,,,,,,,,,
46333223.8855833,0.0451965332,-0.8621978760,-0.2193756104,,,,,,,,,,,,,,,,,,,,,,,,
46333312.9993333,,,,,0.2865087290,1.1524296985,-0.5141307053,,,,,,,,,,,,,,,,,,,,
1451522727999.89,,,,,,,,,,,,,,52.493010428783,13.3859981037801,110.7421875,11.7399997711182,36.9676513671875,10.0,3.0,,,,,,,
46333.3129190417,,,,,,,,,,,-102.7545166016,-138.0711364746,234.6031799316,,,,,,,,,,,,,,
46333328.8470417,-0.2355194092,-0.9267578125,-0.3023223877,,,,,,,,,,,,,,,,,,,,,,,,
46333413.3562917,,,,,-1.0388797002,0.6798483010,-0.6776972658,,,,,,,,,,,,,,,,,,,,
46333.4133147917,,,,,,,,,,,-98.2138214111,-134.8758239746,232.8048248291,,,,,,,,,,,,,,
46333434.1203333,0.2436370850,-0.9351043701,-0.3422393799,,,,,,,,,,,,,,,,,,,,,,,,
46333514.1559167,,,,,-2.1348573078,1.1169119180,-0.3611978807,,,,,,,,,,,,,,,,,,,,
46333.5140837917,,,,,,,,,,,-98.5501556396,-127.4761505127,233.7857513428,,,,,,,,,,,,,,
46333538.513625,0.2756958008,-0.8305664062,-0.8545837402,,,,,,,,,,,,,,,,,,,,,,,,
46333615.194875,,,,,-1.0184716304,0.2631237778,0.0110212259,,,,,,,,,,,,,,,,,,,,
46333.61512,,,,,,,,,,,-95.6911926270,-120.9173431396,234.6031799316,,,,,,,,,,,,,,
46333643.5486667,0.0160827637,-0.7282257080,-0.8181304932,,,,,,,,,,,,,,,,,,,,,,,,
46333715.5054583,,,,,0.8056781351,-0.1021135857,-0.1881214383,,,,,,,,,,,,,,,,,,,,
46333.7153070417,,,,,,,,,,,-95.6911926270,-122.9354400635,231.0064697266,,,,,,,,,,,,,,
46333748.8164167,0.0724029541,-0.8035430908,-0.3417053223,,,,,,,,,,,,,,,,,,,,,,,,
46333816.2563333,,,,,-1.0121990871,0.2798047536,-0.6272266347,,,,,,,,,,,,,,,,,,,,
46333.816133375,,,,,,,,,,,-96.0275421143,-121.5900421143,231.0064697266,,,,,,,,,,,,,,
46333852.809625,0.5191802979,-0.6206207275,-0.6826477051,,,,,,,,,,,,,,,,,,,,,,,,
46333917.245,,,,,-0.0775589741,-1.3453371037,-0.3570939495,,,,,,,,,,,,,,,,,,,,
46333.9162486667,,,,,,,,,,,-98.0456390381,-117.2175140381,226.7558288574,,,,,,,,,,,,,,
46333957.8912917,0.5241699219,-0.5499725342,-0.8367919922,,,,,,,,,,,,,,,,,,,,,,,,
46334018.3925,,,,,0.8248584876,-1.3628204899,0.4931151685,,,,,,,,,,,,,,,,,,,,
46334.0171675417,,,,,,,,,,,-99.0546875000,-110.4905395508,223.1591186523,,,,,,,,,,,,,,
46334063.0789167,0.1195373535,-0.6906738281,-0.6632385254,,,,,,,,,,,,,,,,,,,,,,,,
46334119.4267083,,,,,-0.3928202555,0.0992791833,-0.2374961786,,,,,,,,,,,,,,,,,,,,
46334.1182056667,,,,,,,,,,,-93.5049285889,-114.0222015381,215.8022308350,,,,,,,,,,,,,,
46334168.2736667,0.2493286133,-0.6385650635,-0.9084320068,,,,,,,,,,,,,,,,,,,,,,,,
46334220.4634167,,,,,-0.2889793436,0.1690582649,0.3729416222,,,,,,,,,,,,,,,,,,,,
46334.2192427917,,,,,,,,,,,-93.1685791016,-119.4037780762,219.7259063721,,,,,,,,,,,,,,
46334273.4810833,0.0578613281,-0.5881347656,-0.8048553467,,,,,,,,,,,,,,,,,,,,,,,,
1451522728999.89,,,,,,,,,,,,,,52.4930391661388,13.3862989518821,106.145668029785,15.2299995422363,36.6356201171875,10.0,3.0,,,,,,,
46334321.5079583,,,,,1.0226866155,-0.4457159611,0.2654271458,,,,,,,,,,,,,,,,,,,,
46334.3203057917,,,,,,,,,,,-93.8412780762,-121.0855255127,221.6877441406,,,,,,,,,,,,,,
46334378.1205417,0.2045440674,-0.3852691650,-0.7566223145,,,,,,,,,,,,,,,,,,,,,,,,
46334422.5502917,,,,,-0.2511323624,0.1179428826,0.2379537097,,,,,,,,,,,,,,,,,,,,
46334.4213562917,,,,,,,,,,,-89.8050994873,-115.7039489746,216.4561767578,,,,,,,,,,,,,,
46334483.334375,0.0156402588,-0.1304779053,-1.1940155029,,,,,,,,,,,,,,,,,,,,,,,,
46334523.5879167,,,,,-1.1069724682,0.9032006974,-0.4278019417,,,,,,,,,,,,,,,,,,,,
46334.522398875,,,,,,,,,,,-80.5555114746,-118.5629119873,212.3690032959,,,,,,,,,,,,,,
46334588.5984167,0.1593780518,-0.3933868408,-0.7128906250,,,,,,,,,,,,,,,,,,,,,,,,
46334624.6296667,,,,,-0.1105155926,0.6146991249,0.6852702306,,,,,,,,,,,,,,,,,,,,
46334.623438125,,,,,,,,,,,-83.7508239746,-129.1578826904,215.1482849121,,,,,,,,,,,,,,
46334693.8775833,0.2771453857,-0.5870056152,-0.8801269531,,,,,,,,,,,,,,,,,,,,,,,,
46334725.6754583,,,,,0.9658520946,-0.2893037166,0.6783231086,,,,,,,,,,,,,,,,,,,,
46334.7244766667,,,,,,,,,,,-83.2462921143,-127.9806671143,221.1972808838,,,,,,,,,,,,,,
46334798.437625,0.0752410889,-0.1972656250,-0.6634521484,,,,,,,,,,,,,,,,,,,,,,,,
46334826.7168333,,,,,0.5148873094,-0.1624256623,-0.3955819536,,,,,,,,,,,,,,,,,,,,
46334.82551775,,,,,,,,,,,-82.9099578857,-123.2717895508,215.6387329102,,,,,,,,,,,,,,
46334902.9455417,0.2202148438,-0.4556274414,-1.2177886963,,,,,,,,,,,,,,,,,,,,,,,,
46334927.7528333,,,,,0.1098141160,0.1043165525,0.2026673579,,,,,,,,,,,,,,,,,,,,
46334.92655925,,,,,,,,,,,-83.0781250000,-122.4309234619,214.1673583984,,,,,,,,,,,,,,
46335008.0440417,0.1538696289,-0.6945953369,-1.2614440918,,,,,,,,,,,,,,,,,,,,,,,,
46335028.79275,,,,,0.2370133475,0.7981368618,-0.1960707079,,,,,,,,,,,,,,,,,,,,
46335.0276082083,,,,,,,,,,,-83.5826416016,-128.3170166016,214.9847869873,,,,,,,,,,,,,,
46335112.130625,0.1237945557,-0.4847717285,-0.5983428955,,,,,,,,,,,,,,,,,,,,,,,,
46335129.8295833,,,,,0.0963406514,-0.0292684067,0.1483196969,,,,,,,,,,,,,,,,,,,,
46335.12864975,,,,,,,,,,,-84.4235229492,-129.1578826904,220.3798522949,,,,,,,,,,,,,,
46335216.7220417,0.1326141357,-0.6145782471,-0.9622497559,,,,,,,,,,,,,,,,,,,,,,,,
46335230.857375,,,,,-1.2914560285,0.5680213678,-0.3795667680,,,,,,,,,,,,,,,,,,,,
46335.2297582917,,,,,,,,,,,-81.3963775635,-120.0764770508,223.6495819092,,,,,,,,,,,,,,
1451522729999.89,,,,,,,,,,,,,,52.4929919139311,13.3865670287196,106.145668029785,16.3199996948242,36.7861938476562,10.0,3.0,,,,,,,
46335320.1989583,0.1183319092,-0.3749389648,-0.9686737061,,,,,,,,,,,,,,,,,,,,,,,,
46335331.9992083,,,,,1.0085604101,-0.6857495996,0.0573879257,,,,,,,,,,,,,,,,,,,,
46335.3308912083,,,,,,,,,,,-87.1143035889,-120.4128265381,220.0528717041,,,,,,,,,,,,,,
46335425.2167083,0.0864105225,-0.4254302979,-0.6418457031,,,,,,,,,,,,,,,,,,,,,,,,
46335433.0367917,,,,,-0.2233838217,-1.8536575904,0.0063883908,,,,,,,,,,,,,,,,,,,,
46335.431935625,,,,,,,,,,,-95.0185089111,-124.2808380127,217.6005706787,,,,,,,,,,,,,,
46335529.6895417,0.2809906006,-0.3219604492,-1.4929351807,,,,,,,,,,,,,,,,,,,,,,,,
46335533.8865833,,,,,-1.2535517893,-0.0828701163,-0.3789214841,,,,,,,,,,,,,,,,,,,,
46335.5330854583,,,,,,,,,,,-99.5592041016,-120.4128265381,219.7259063721,,,,,,,,,,,,,,
46335634.06125,0.0289459229,-0.4836273193,-1.0635375977,,,,,,,,,,,,,,,,,,,,,,,,
46335634.1651667,,,,,-0.2331325892,0.3330088532,0.4778683049,,,,,,,,,,,,,,,,,,,,
46335.6341327083,,,,,,,,,,,-100.2319030762,-118.7310791016,225.9383850098,,,,,,,,,,,,,,
46335735.239125,,,,,-0.0642764582,1.4095560375,-0.2294137510,,,,,,,,,,,,,,,,,,,,
46335739.313875,0.0512847900,-0.2934265137,-0.7815856934,,,,,,,,,,,,,,,,,,,,,,,,
46335.7351714583,,,,,,,,,,,-96.1957244873,-119.4037780762,227.5732574463,,,,,,,,,,,,,,
46335836.2432917,,,,,-0.5801347561,1.1857900522,-0.0857497924,,,,,,,,,,,,,,,,,,,,
46335844.4838333,0.1486663818,-0.4587402344,-0.8541107178,,,,,,,,,,,,,,,,,,,,,,,,
46335.8361972083,,,,,,,,,,,-94.1776275635,-112.6768035889,226.2653656006,,,,,,,,,,,,,,
46335937.3532917,,,,,-0.4874088132,-0.9472861334,0.3984371286,,,,,,,,,,,,,,,,,,,,
46335.9372633333,,,,,,,,,,,-92.3277130127,-109.1451416016,221.8512268066,,,,,,,,,,,,,,
46335949.008625,-0.0098114014,-0.4505004883,-0.9911804199,,,,,,,,,,,,,,,,,,,,,,,,
46336038.3779583,,,,,-0.1801260961,-0.6905669917,0.5397045086,,,,,,,,,,,,,,,,,,,,
46336.0383112917,,,,,,,,,,,-93.0004119873,-109.8178405762,221.1972808838,,,,,,,,,,,,,,
46336054.3004167,0.0837554932,-0.2941589355,-1.1650695801,,,,,,,,,,,,,,,,,,,,,,,,
46336138.801875,,,,,-0.1048632995,-0.2691893935,-0.2205044119,,,,,,,,,,,,,,,,,,,,
46336.1386409167,,,,,,,,,,,-90.3096160889,-108.8087921143,221.8512268066,,,,,,,,,,,,,,
46336159.5035,0.0583190918,-0.1243438721,-1.0104980469,,,,,,,,,,,,,,,,,,,,,,,,
46336239.7430417,,,,,-0.1418354323,0.4024358650,0.4288909083,,,,,,,,,,,,,,,,,,,,
46336.2396785,,,,,,,,,,,-89.1324005127,-109.3133239746,223.3226013184,,,,,,,,,,,,,,
46336264.7041667,-0.0554351807,-0.4982147217,-1.0515289307,,,,,,,,,,,,,,,,,,,,,,,,
1451522730999.89,,,,,,,,,,,,,,52.4929470016604,13.3868218294083,106.145668029785,16.7999992370605,37.023193359375,10.0,3.0,,,,,,,
46336340.8204167,,,,,0.3947827389,-1.3044194977,-0.3977564246,,,,,,,,,,,,,,,,,,,,
46336.3407432083,,,,,,,,,,,-94.8503265381,-108.6406250000,218.7449798584,,,,,,,,,,,,,,
46336369.973,-0.2078857422,-0.0504760742,-1.0228271484,,,,,,,,,,,,,,,,,,,,,,,,
46336441.9991667,,,,,0.7036428464,0.2738163696,-1.2557499625,,,,,,,,,,,,,,,,,,,,
46336.441784,,,,,,,,,,,-104.4362640381,-109.4814910889,209.7532196045,,,,,,,,,,,,,,
46336475.2289167,0.4194946289,-0.0412750244,-0.9213104248,,,,,,,,,,,,,,,,,,,,,,,,
46336542.8925833,,,,,0.3283986551,-0.4665677135,0.3901757366,,,,,,,,,,,,,,,,,,,,
46336.5428234167,,,,,,,,,,,-105.6134796143,-113.6858520508,211.2246093750,,,,,,,,,,,,,,
46336580.444125,-0.0375823975,-0.2887878418,-0.9519195557,,,,,,,,,,,,,,,,,,,,,,,,
46336643.702375,,,,,0.1790991812,0.3101674532,-0.2195877519,,,,,,,,,,,,,,,,,,,,
46336.6436657917,,,,,,,,,,,-102.2500000000,-117.7220306396,213.1864471436,,,,,,,,,,,,,,
46336685.676,0.1027069092,0.0440368652,-1.2312164307,,,,,,,,,,,,,,,,,,,,,,,,
46336744.7836667,,,,,0.4419899324,2.3374032255,1.3126800908,,,,,,,,,,,,,,,,,,,,
46336.7447075,,,,,,,,,,,-94.8503265381,-115.7039489746,219.3989257812,,,,,,,,,,,,,,
46336790.8694583,0.1200256348,-0.1301116943,-1.0034637451,,,,,,,,,,,,,,,,,,,,,,,,
46336845.8237083,,,,,-0.1607388160,-0.0531654838,0.8353590654,,,,,,,,,,,,,,,,,,,,
46336.8457484583,,,,,,,,,,,-92.1595458984,-114.3585510254,223.6495819092,,,,,,,,,,,,,,
46336896.0682917,-0.0976867676,-0.4548797607,-0.8889617920,,,,,,,,,,,,,,,,,,,,,,,,
46336946.8939583,,,,,0.3626738046,0.7064189255,-0.7783626244,,,,,,,,,,,,,,,,,,,,
46336.9468175833,,,,,,,,,,,-89.4687500000,-115.7039489746,224.9574737549,,,,,,,,,,,,,,
46337001.1340833,0.5935668945,0.1627349854,-0.8582916260,,,,,,,,,,,,,,,,,,,,,,,,
46337047.8960417,,,,,-0.6334294032,0.3582633435,2.1822197636,,,,,,,,,,,,,,,,,,,,
46337.0478445833,,,,,,,,,,,-87.7870025635,-114.6949005127,233.4587707520,,,,,,,,,,,,,,
46337106.4277917,-0.7494354248,-0.5729522705,-1.3033905029,,,,,,,,,,,,,,,,,,,,,,,,
46337148.656875,,,,,0.9203836790,-0.0577479851,-1.6874254720,,,,,,,,,,,,,,,,,,,,
46337.1486168333,,,,,,,,,,,-89.8050994873,-116.0402984619,237.0554809570,,,,,,,,,,,,,,
46337211.6476667,-0.0240020752,-0.1893005371,-1.1735076904,,,,,,,,,,,,,,,,,,,,,,,,
46337249.7299583,,,,,0.8261338754,-0.0919128798,-0.7815466998,,,,,,,,,,,,,,,,,,,,
46337.2496563333,,,,,,,,,,,-90.8141479492,-116.0402984619,235.0936431885,,,,,,,,,,,,,,
1451522731999.89,,,,,,,,,,,,,,52.4929299666744,13.3869184747164,106.145668029785,13.6800003051758,37.24658203125,10.0,3.0,,,,,,,
46337316.9595,0.3356781006,-0.0842437744,-0.6012573242,,,,,,,,,,,,,,,,,,,,,,,,
46337350.7772083,,,,,-1.1025822471,0.3819164751,-0.2318814361,,,,,,,,,,,,,,,,,,,,
46337.3506984583,,,,,,,,,,,-90.8141479492,-114.3585510254,237.0554809570,,,,,,,,,,,,,,
46337422.2057917,-0.0653533936,-0.2205505371,-1.0802917480,,,,,,,,,,,,,,,,,,,,,,,,
46337451.9295833,,,,,0.3281728190,-0.1783495014,0.9871648402,,,,,,,,,,,,,,,,,,,,
46337.4518465417,,,,,,,,,,,-93.0004119873,-115.5357666016,237.8729095459,,,,,,,,,,,,,,
46337527.47275,-0.2695617676,-0.1995849609,-1.0637054443,,,,,,,,,,,,,,,,,,,,,,,,
46337553.1007917,,,,,-0.4018813948,0.4972494598,-0.7454643292,,,,,,,,,,,,,,,,,,,,
46337.5530019583,,,,,,,,,,,-91.8231964111,-114.0222015381,237.7094268799,,,,,,,,,,,,,,
46337632.3192917,0.1366424561,-0.2328796387,-0.9760742188,,,,,,,,,,,,,,,,,,,,,,,,
46337653.60875,,,,,-0.1741662079,0.0661627752,-0.0012777847,,,,,,,,,,,,,,,,,,,,
46337.653470875,,,,,,,,,,,-89.3005676270,-112.5086364746,238.1998748779,,,,,,,,,,,,,,
46337736.6373333,0.1429443359,-0.1174926758,-1.1798248291,,,,,,,,,,,,,,,,,,,,,,,,
46337754.592375,,,,,0.2752326387,-0.0660834130,-0.1376153872,,,,,,,,,,,,,,,,,,,,
46337.75451225,,,,,,,,,,,-89.4687500000,-114.3585510254,239.3442840576,,,,,,,,,,,,,,
46337841.251,0.0064086914,-0.2359161377,-0.9653167725,,,,,,,,,,,,,,,,,,,,,,,,
46337855.6335,,,,,0.0572262718,0.0241785732,0.0221196834,,,,,,,,,,,,,,,,,,,,
46337.8555552083,,,,,,,,,,,-87.4506530762,-111.6677551270,238.0363922119,,,,,,,,,,,,,,
46337946.519625,0.1820831299,-0.3112335205,-1.0396118164,,,,,,,,,,,,,,,,,,,,,,,,
46337956.68125,,,,,0.0408078837,-0.1426048195,0.3176120537,,,,,,,,,,,,,,,,,,,,
46337.9565959167,,,,,,,,,,,-88.2915344238,-112.5086364746,238.8538208008,,,,,,,,,,,,,,
46338051.73025,-0.0190429688,-0.6002960205,-0.6950683594,,,,,,,,,,,,,,,,,,,,,,,,
46338057.0899583,,,,,0.6008416325,0.2602499607,0.3947774126,,,,,,,,,,,,,,,,,,,,
46338.0570063333,,,,,,,,,,,-88.7960510254,-113.3495025635,235.7475891113,,,,,,,,,,,,,,
46338156.9792917,-0.1627960205,-0.6557464600,-1.0363769531,,,,,,,,,,,,,,,,,,,,,,,,
46338158.1398333,,,,,-0.0380176898,-0.7587705472,-0.4196968772,,,,,,,,,,,,,,,,,,,,
46338.1580538333,,,,,,,,,,,-91.9913635254,-113.5176849365,234.9301452637,,,,,,,,,,,,,,
46338259.1884583,,,,,0.0248081445,-0.1154853175,-0.4115007327,,,,,,,,,,,,,,,,,,,,
46338262.167,-0.0911407471,-0.4364318848,-0.6836700439,,,,,,,,,,,,,,,,,,,,,,,,
46338.2591061667,,,,,,,,,,,-92.3277130127,-115.5357666016,235.2571258545,,,,,,,,,,,,,,
1451522732999.89,,,,,,,,,,,,,,52.4928614747931,13.3871638856079,105.784240722656,12.9899997711182,36.8623657226562,10.0,3.0,,,,,,,
46338360.2368333,,,,,-0.6697914057,0.3971907692,-0.6197905563,,,,,,,,,,,,,,,,,,,,
46338365.9698333,-0.2345275879,-0.2279052734,-1.0267181396,,,,,,,,,,,,,,,,,,,,,,,,
46338.3601500417,,,,,,,,,,,-92.3277130127,-114.1903686523,234.9301452637,,,,,,,,,,,,,,
46338461.0488333,,,,,-0.2010542812,0.0246646001,-0.3036970370,,,,,,,,,,,,,,,,,,,,
46338.4608688333,,,,,,,,,,,-91.1504974365,-116.7129974365,238.3633728027,,,,,,,,,,,,,,
46338471.3350417,-1.1377868652,-0.3630676270,-1.2377319336,,,,,,,,,,,,,,,,,,,,,,,,
46338562.0771667,,,,,0.9803876279,-0.9140176588,-0.0560097398,,,,,,,,,,,,,,,,,,,,
46338.56199975,,,,,,,,,,,-90.6459655762,-120.2446441650,231.6604156494,,,,,,,,,,,,,,
46338575.751,-0.5703125000,-0.0614624023,-0.7290344238,,,,,,,,,,,,,,,,,,,,,,,,
46338663.247125,,,,,0.6517697946,-1.7074825371,-0.3439547116,,,,,,,,,,,,,,,,,,,,
46338.6630475,,,,,,,,,,,-93.0004119873,-129.3260650635,231.0064697266,,,,,,,,,,,,,,
46338680.392875,-1.3220977783,-0.2800140381,-1.1643676758,,,,,,,,,,,,,,,,,,,,,,,,
46338764.154,,,,,0.3019257686,0.6481955661,-0.7992961359,,,,,,,,,,,,,,,,,,,,
46338.764086875,,,,,,,,,,,-88.6278839111,-133.0258941650,231.9873962402,,,,,,,,,,,,,,
46338785.2631667,-0.5157012939,-0.6412200928,-1.1189270020,,,,,,,,,,,,,,,,,,,,,,,,
46338865.3157083,,,,,1.0917367899,1.8170228801,0.5934577520,,,,,,,,,,,,,,,,,,,,
46338.865125,,,,,,,,,,,-85.6007385254,-136.7257385254,238.5268554688,,,,,,,,,,,,,,
46338890.476875,-0.1240081787,-0.4729919434,-0.0911102295,,,,,,,,,,,,,,,,,,,,,,,,
46338966.258125,,,,,-1.2493522506,0.6533612997,-0.7946233534,,,,,,,,,,,,,,,,,,,,
46338.966178375,,,,,,,,,,,-88.1233520508,-136.5575561523,243.9219055176,,,,,,,,,,,,,,
46338995.720375,-0.7135314941,-0.1512451172,-2.0623321533,,,,,,,,,,,,,,,,,,,,,,,,
46339067.294375,,,,,-0.0373793301,-0.4214878531,-1.3898691518,,,,,,,,,,,,,,,,,,,,
46339.0672219583,,,,,,,,,,,-87.9551849365,-134.7076416016,246.3742065430,,,,,,,,,,,,,,
46339100.9683333,-0.3226013184,-0.1989135742,-1.4740142822,,,,,,,,,,,,,,,,,,,,,,,,
46339168.3283333,,,,,-0.4473095967,-0.9440778233,-1.1666198197,,,,,,,,,,,,,,,,,,,,
46339.1682599583,,,,,,,,,,,-87.6188354492,-131.3441619873,248.0090789795,,,,,,,,,,,,,,
46339206.172875,-0.3566894531,-0.3255767822,-0.8237152100,,,,,,,,,,,,,,,,,,,,,,,,
46339269.4300833,,,,,-0.9285928731,-1.4124045546,-0.7715390731,,,,,,,,,,,,,,,,,,,,
46339.2693900417,,,,,,,,,,,-90.8141479492,-129.8305816650,249.8074188232,,,,,,,,,,,,,,
1451522733999.89,,,,,,,,,,,,,,52.4928416975265,13.3873566842448,107.258934020996,11.8900003433228,36.8900146484375,10.0,3.0,,,,,,,
46339311.4735,-0.6530609131,-0.5931243896,-0.9115600586,,,,,,,,,,,,,,,,,,,,,,,,
46339370.5055833,,,,,-0.0066597669,-0.6932693013,-0.8039683857,,,,,,,,,,,,,,,,,,,,
46339.3704323333,,,,,,,,,,,-91.6550140381,-131.0078125000,249.6439361572,,,,,,,,,,,,,,
46339416.717875,-0.6943664551,-0.2195587158,-1.0904083252,,,,,,,,,,,,,,,,,,,,,,,,
46339471.5615417,,,,,-0.1421139989,-0.0432324256,-1.0581284959,,,,,,,,,,,,,,,,,,,,
46339.4714784583,,,,,,,,,,,-88.4597015381,-129.8305816650,249.8074188232,,,,,,,,,,,,,,
46339521.9562083,-0.5203399658,-0.4815368652,-0.7477416992,,,,,,,,,,,,,,,,,,,,,,,,
46339572.6024583,,,,,-0.4575430595,-0.0976112455,-0.5633970549,,,,,,,,,,,,,,,,,,,,
46339.5725222917,,,,,,,,,,,-88.4597015381,-130.8396301270,248.4995269775,,,,,,,,,,,,,,
46339627.186,-0.4191741943,-0.0510101318,-1.0908203125,,,,,,,,,,,,,,,,,,,,,,,,
46339673.7677083,,,,,-0.2893322124,-0.1785878543,-0.3623520948,,,,,,,,,,,,,,,,,,,,
46339.673561375,,,,,,,,,,,-86.4416046143,-133.5304260254,249.1534729004,,,,,,,,,,,,,,
46339732.371875,-0.5050811768,-0.3966674805,-1.1956939697,,,,,,,,,,,,,,,,,,,,,,,,
46339774.6728333,,,,,0.5092589847,-0.1962510039,-0.7063992181,,,,,,,,,,,,,,,,,,,,
46339.7745330833,,,,,,,,,,,-86.6097869873,-134.3712921143,249.3169708252,,,,,,,,,,,,,,
46339837.6338333,-0.5024719238,-0.1933898926,-0.9308166504,,,,,,,,,,,,,,,,,,,,,,,,
46339875.7632083,,,,,0.1526747642,0.0345127035,-0.8246829853,,,,,,,,,,,,,,,,,,,,
46339.8755710417,,,,,,,,,,,-84.5916900635,-134.0349426270,249.9709167480,,,,,,,,,,,,,,
46339942.543375,-0.3221435547,-0.3189849854,-1.0873870850,,,,,,,,,,,,,,,,,,,,,,,,
46339976.6881667,,,,,0.5060498756,-0.8786897616,-0.7634321444,,,,,,,,,,,,,,,,,,,,
46339.9766121667,,,,,,,,,,,-83.9189910889,-133.3622436523,249.9709167480,,,,,,,,,,,,,,
46340047.7634583,-0.7828369141,-0.4346160889,-0.5324401855,,,,,,,,,,,,,,,,,,,,,,,,
46340077.7188333,,,,,-1.0702746410,0.3457305074,-1.0676868474,,,,,,,,,,,,,,,,,,,,
46340.0776507917,,,,,,,,,,,-84.9280395508,-135.0439910889,248.9899902344,,,,,,,,,,,,,,
46340152.98425,-0.5463562012,-0.5602722168,-1.1072998047,,,,,,,,,,,,,,,,,,,,,,,,
46340178.7643333,,,,,0.0640839116,0.0713000129,-0.0310838836,,,,,,,,,,,,,,,,,,,,
46340.1786912917,,,,,,,,,,,-85.7689208984,-137.5666046143,250.1343994141,,,,,,,,,,,,,,
46340258.1916667,-0.5006866455,-0.3808898926,-0.9232788086,,,,,,,,,,,,,,,,,,,,,,,,
46340279.2485417,,,,,-0.2107338065,-0.0335712761,-0.3852158654,,,,,,,,,,,,,,,,,,,,
46340.2792157083,,,,,,,,,,,-84.7598724365,-137.9029541016,252.7501831055,,,,,,,,,,,,,,
1451522734999.89,,,,,,,,,,,,,,52.4928266128427,13.3874502954284,107.258934020996,9.14000034332275,37.0045166015625,10.0,3.0,,,,,,,
46340363.285125,-0.2304840088,-0.3154907227,-1.0932464600,,,,,,,,,,,,,,,,,,,,,,,,
46340380.3357083,,,,,0.3565709047,-0.5944812049,0.1098380844,,,,,,,,,,,,,,,,,,,,
46340.3802597917,,,,,,,,,,,-84.4235229492,-137.9029541016,253.0771636963,,,,,,,,,,,,,,
46340468.4966667,-0.3846588135,-0.3854980469,-1.1120300293,,,,,,,,,,,,,,,,,,,,,,,,
46340481.3707083,,,,,-0.1830619649,0.2379672918,-0.7516396671,,,,,,,,,,,,,,,,,,,,
46340.4813000833,,,,,,,,,,,-83.0781250000,-139.5847015381,254.0580749512,,,,,,,,,,,,,,
46340573.8298333,-0.5846405029,-0.5402984619,-0.8288269043,,,,,,,,,,,,,,,,,,,,,,,,
46340582.4086667,,,,,0.1102359607,-0.3433254067,-0.0031939291,,,,,,,,,,,,,,,,,,,,
46340.5823401667,,,,,,,,,,,-83.5826416016,-140.0892181396,254.8755035400,,,,,,,,,,,,,,
46340679.0349167,-0.1850280762,-0.7512969971,-0.9843902588,,,,,,,,,,,,,,,,,,,,,,,,
46340683.4676667,,,,,-0.0949691234,1.0415231539,-0.6761539639,,,,,,,,,,,,,,,,,,,,
46340.6833932917,,,,,,,,,,,-80.5555114746,-140.7619171143,254.5485382080,,,,,,,,,,,,,,
46340784.2305,-0.1331481934,-0.1190948486,-1.0269317627,,,,,,,,,,,,,,,,,,,,,,,,
46340784.3268333,,,,,0.0281599991,1.5699465121,-1.4602405205,,,,,,,,,,,,,,,,,,,,
46340.7842956667,,,,,,,,,,,-77.6965484619,-137.2302551270,257.3278198242,,,,,,,,,,,,,,
46340885.5211667,,,,,1.1651838433,-1.5457093493,-0.5644556615,,,,,,,,,,,,,,,,,,,,
46340889.4868333,0.2576141357,-0.2322540283,-1.3766326904,,,,,,,,,,,,,,,,,,,,,,,,
46340.885333,,,,,,,,,,,-75.6784515381,-134.2031250000,257.9817504883,,,,,,,,,,,,,,
46340986.552,,,,,1.3042117711,-0.9400407374,-0.7990255587,,,,,,,,,,,,,,,,,,,,
46340994.8183333,0.3543853760,-0.7979431152,-1.3269805908,,,,,,,,,,,,,,,,,,,,,,,,
46340.9864205,,,,,,,,,,,-73.8285369873,-136.0530395508,250.2978820801,,,,,,,,,,,,,,
46341087.527625,,,,,2.8167378670,-0.7210311577,-0.1155010302,,,,,,,,,,,,,,,,,,,,
46341.08745925,,,,,,,,,,,-76.5193328857,-140.4255676270,246.3742065430,,,,,,,,,,,,,,
46341100.060125,-0.0113067627,-0.5371093750,-0.3254089355,,,,,,,,,,,,,,,,,,,,,,,,
46341188.689875,,,,,0.0228208937,2.5084900203,-0.9491913589,,,,,,,,,,,,,,,,,,,,
46341.188497625,,,,,,,,,,,-75.3421020508,-139.5847015381,247.5186157227,,,,,,,,,,,,,,
46341205.2524167,0.9608154297,-0.6286163330,-0.5492706299,,,,,,,,,,,,,,,,,,,,,,,,
46341289.2120417,,,,,1.9939803472,-1.3202176356,1.4882910636,,,,,,,,,,,,,,,,,,,,
46341.2891745833,,,,,,,,,,,-85.0962219238,-145.6389770508,249.8074188232,,,,,,,,,,,,,,
1451522735999.89,,,,,,,,,,,,,,52.4927075068024,13.3874475024765,133.9453125,8.07999992370605,36.367431640625,10.0,3.0,,,,,,,
46341310.138625,-0.2558135986,-0.7575225830,-0.5687866211,,,,,,,,,,,,,,,,,,,,,,,,
46341390.3689167,,,,,1.3480095858,-0.2761535598,0.0224318059,,,,,,,,,,,,,,,,,,,,
46341.3902848333,,,,,,,,,,,-87.4506530762,-147.6570587158,254.3850555420,,,,,,,,,,,,,,
46341414.9792083,0.0729827881,-0.9873199463,-0.0587463379,,,,,,,,,,,,,,,,,,,,,,,,
46341491.6259583,,,,,0.7279274134,-0.9788136997,-0.0202362959,,,,,,,,,,,,,,,,,,,,
46341.4913355833,,,,,,,,,,,-90.1414489746,-146.9843750000,254.3850555420,,,,,,,,,,,,,,
46341519.508125,0.0464324951,-1.0376129150,0.0322723389,,,,,,,,,,,,,,,,,,,,,,,,
46341592.1252083,,,,,-0.7995009329,0.1193439716,-0.0281932886,,,,,,,,,,,,,,,,,,,,
46341.5920209583,,,,,,,,,,,-91.3186645508,-143.4527130127,252.2597198486,,,,,,,,,,,,,,
46341624.75125,0.0370330811,-1.0481567383,-0.2512512207,,,,,,,,,,,,,,,,,,,,,,,,
46341693.1485833,,,,,1.1073200107,0.0859742968,-0.2016790588,,,,,,,,,,,,,,,,,,,,
46341.6930727083,,,,,,,,,,,-93.5049285889,-144.6299285889,252.7501831055,,,,,,,,,,,,,,
46341729.0365417,0.0686798096,-0.8094177246,0.3919677734,,,,,,,,,,,,,,,,,,,,,,,,
46341793.7343333,,,,,-0.4060511061,-1.5035142250,0.8219788115,,,,,,,,,,,,,,,,,,,,
46341.79354475,,,,,,,,,,,-94.0094604492,-145.8071441650,252.2597198486,,,,,,,,,,,,,,
46341834.2306667,-0.0452880859,-1.0580596924,-0.0539398193,,,,,,,,,,,,,,,,,,,,,,,,
46341894.78675,,,,,-0.4932869424,-0.8118364288,0.1456131263,,,,,,,,,,,,,,,,,,,,
46341.8945826667,,,,,,,,,,,-91.9913635254,-146.8161926270,249.3169708252,,,,,,,,,,,,,,
46341939.4355833,0.1356658936,-0.9453582764,-0.1914825439,,,,,,,,,,,,,,,,,,,,,,,,
46341995.8238333,,,,,-0.1686393497,-1.7893603596,1.1229682126,,,,,,,,,,,,,,,,,,,,
46341.995623375,,,,,,,,,,,-93.3367614746,-146.1434936523,248.6630249023,,,,,,,,,,,,,,
46342044.6159583,-0.6005249023,-0.8222351074,-0.2711486816,,,,,,,,,,,,,,,,,,,,,,,,
46342096.73625,,,,,-0.8754593472,-0.0151983940,0.8302513888,,,,,,,,,,,,,,,,,,,,
46342.0966665417,,,,,,,,,,,-93.3367614746,-144.7980957031,246.7011871338,,,,,,,,,,,,,,
46342149.8169167,-0.3672943115,-0.8546600342,-0.4385528564,,,,,,,,,,,,,,,,,,,,,,,,
46342197.7689167,,,,,-0.6998475755,0.8903008777,-0.3889086045,,,,,,,,,,,,,,,,,,,,
46342.1977042917,,,,,,,,,,,-91.4868469238,-142.6118316650,242.2870483398,,,,,,,,,,,,,,
46342254.2976667,-0.5021972656,-0.7789306641,-0.4827728271,,,,,,,,,,,,,,,,,,,,,,,,
46342298.8347917,,,,,-0.6072686391,1.1047260918,-0.7687534066,,,,,,,,,,,,,,,,,,,,
1451522736999.89,,,,,,,,,,,,,,52.4926016852748,13.3873908408111,163.828125,7.67999982833862,36.5028076171875,10.0,3.0,,,,,,,
46342.2987517917,,,,,,,,,,,-90.6459655762,-140.4255676270,240.8156738281,,,,,,,,,,,,,,
46342359.5725833,-0.0212249756,-1.4149780273,-0.5136566162,,,,,,,,,,,,,,,,,,,,,,,,
46342400.0370833,,,,,-0.6928077755,-0.7858668797,1.4516353143,,,,,,,,,,,,,,,,,,,,
46342.3997931667,,,,,,,,,,,-90.8141479492,-136.8939056396,239.0173187256,,,,,,,,,,,,,,
46342464.882,0.6702575684,-0.6989135742,-0.7579956055,,,,,,,,,,,,,,,,,,,,,,,,
46342501.0430417,,,,,0.7804790385,1.3270688838,-0.3113930399,,,,,,,,,,,,,,,,,,,,
46342.500833375,,,,,,,,,,,-88.4597015381,-138.9120025635,240.9791564941,,,,,,,,,,,,,,
46342569.7414583,-0.5200805664,-0.9953155518,-0.5461120605,,,,,,,,,,,,,,,,,,,,,,,,
46342601.3902083,,,,,0.7082280108,1.8589325136,0.2211433043,,,,,,,,,,,,,,,,,,,,
46342.6012940833,,,,,,,,,,,-81.7327270508,-140.2574005127,248.1725616455,,,,,,,,,,,,,,
46342674.950375,-0.5316772461,-1.0709838867,-0.3144531250,,,,,,,,,,,,,,,,,,,,,,,,
46342701.8495,,,,,1.6179859434,-0.1879571213,-0.6457446590,,,,,,,,,,,,,,,,,,,,
46342.7017612083,,,,,,,,,,,-82.2372589111,-142.1073150635,250.6248626709,,,,,,,,,,,,,,
46342780.1860417,-0.2931823730,-0.7856597900,-0.4886016846,,,,,,,,,,,,,,,,,,,,,,,,
46342802.9555417,,,,,0.7020105949,-0.3046411276,-0.3140508747,,,,,,,,,,,,,,,,,,,,
46342.80288625,,,,,,,,,,,-82.4054260254,-143.9572296143,249.4804534912,,,,,,,,,,,,,,
46342885.1482083,0.2474975586,-0.7032012939,-0.3227539062,,,,,,,,,,,,,,,,,,,,,,,,
46342904.0352083,,,,,-0.0499819410,-0.6086004860,-0.2209968304,,,,,,,,,,,,,,,,,,,,
46342.9039543333,,,,,,,,,,,-83.5826416016,-144.1254119873,248.0090789795,,,,,,,,,,,,,,
46342989.55725,0.3047637939,-0.8922119141,-0.4476776123,,,,,,,,,,,,,,,,,,,,,,,,
46343005.0835833,,,,,-0.9491098661,-0.1557264805,0.0470418112,,,,,,,,,,,,,,,,,,,,
46343.00499925,,,,,,,,,,,-83.2462921143,-143.1163635254,245.7202606201,,,,,,,,,,,,,,
46343094.7565,0.0245666504,-1.0265502930,-0.5873565674,,,,,,,,,,,,,,,,,,,,,,,,
46343106.1065,,,,,0.1835695634,0.7640409430,0.1481652336,,,,,,,,,,,,,,,,,,,,
46343.106038,,,,,,,,,,,-83.7508239746,-140.5937500000,246.5376892090,,,,,,,,,,,,,,
46343200.0093333,0.0226287842,-1.0278930664,-0.3299713135,,,,,,,,,,,,,,,,,,,,,,,,
46343207.1567083,,,,,-0.3982981116,0.0748177824,0.0130846431,,,,,,,,,,,,,,,,,,,,
46343.20708025,,,,,,,,,,,-82.7417755127,-140.9300994873,245.5567779541,,,,,,,,,,,,,,
46343304.674625,0.0315856934,-0.8849639893,-0.4026641846,,,,,,,,,,,,,,,,,,,,,,,,
46343308.1479583,,,,,-0.4401142681,-0.1536936897,-0.2278739113,,,,,,,,,,,,,,,,,,,,
1451522737999.89,,,,,,,,,,,,,,52.4924716400471,13.3873943612104,171.2109375,9.77000045776367,36.3505249023438,10.0,3.0,,,,,,,
46343.308104625,,,,,,,,,,,-82.4054260254,-140.5937500000,244.5758514404,,,,,,,,,,,,,,
46343409.2365833,,,,,-0.4177945813,-1.3944721594,-0.3727839631,,,,,,,,,,,,,,,,,,,,
46343409.329875,-0.0381011963,-0.8385620117,-0.5571136475,,,,,,,,,,,,,,,,,,,,,,,,
46343.4091490833,,,,,,,,,,,-83.7508239746,-138.2393035889,242.9409942627,,,,,,,,,,,,,,
46343510.2766667,,,,,1.0566341962,-1.4667309104,-0.4195709097,,,,,,,,,,,,,,,,,,,,
46343514.7009583,0.0134429932,-0.8697204590,-0.4204406738,,,,,,,,,,,,,,,,,,,,,,,,
46343.5101938333,,,,,,,,,,,-84.4235229492,-140.2574005127,243.9219055176,,,,,,,,,,,,,,
46343611.3156667,,,,,0.2347424701,-0.3572204497,0.2170574825,,,,,,,,,,,,,,,,,,,,
46343619.60075,-0.1334075928,-1.0804138184,-0.5348968506,,,,,,,,,,,,,,,,,,,,,,,,
46343.6112359583,,,,,,,,,,,-84.5916900635,-139.0801696777,243.7584228516,,,,,,,,,,,,,,
46343711.5917083,,,,,-0.1250031889,-0.0774015813,-0.3396622286,,,,,,,,,,,,,,,,,,,,
46343.711526375,,,,,,,,,,,-83.9189910889,-138.7438201904,243.1044769287,,,,,,,,,,,,,,
46343724.37625,-0.1614990234,-0.8359832764,-0.5823669434,,,,,,,,,,,,,,,,,,,,,,,,
46343812.6304167,,,,,-0.4418804765,-0.2467160423,-0.4855581826,,,,,,,,,,,,,,,,,,,,
46343.8125645833,,,,,,,,,,,-83.7508239746,-139.5847015381,238.6903381348,,,,,,,,,,,,,,
46343829.6282083,0.0547027588,-0.7008056641,-0.9142150879,,,,,,,,,,,,,,,,,,,,,,,,
46343913.6826667,,,,,-1.1024725249,0.4573672909,-0.5332271682,,,,,,,,,,,,,,,,,,,,
46343.9136056667,,,,,,,,,,,-83.7508239746,-138.2393035889,236.0745544434,,,,,,,,,,,,,,
46343934.8394583,0.3407592773,-0.6622619629,-0.8826293945,,,,,,,,,,,,,,,,,,,,,,,,
46344014.8465,,,,,-0.4003226466,0.0832099356,0.2660242266,,,,,,,,,,,,,,,,,,,,
46344.01464675,,,,,,,,,,,-82.0690765381,-139.9210510254,237.3824462891,,,,,,,,,,,,,,
46344039.7275417,-0.0227355957,-0.7033843994,-1.0285797119,,,,,,,,,,,,,,,,,,,,,,,,
46344115.75125,,,,,-0.0074342142,1.0646449848,0.2168316465,,,,,,,,,,,,,,,,,,,,
46344.115684625,,,,,,,,,,,-82.4054260254,-140.5937500000,238.6903381348,,,,,,,,,,,,,,
46344144.9925833,-0.0038604736,-0.7486724854,-0.7259826660,,,,,,,,,,,,,,,,,,,,,,,,
46344216.8006667,,,,,-0.3867280082,0.9918277690,-0.0574659563,,,,,,,,,,,,,,,,,,,,
46344.2167280417,,,,,,,,,,,-82.4054260254,-141.6027832031,241.9600677490,,,,,,,,,,,,,,
46344249.4209167,0.2785339355,-0.8816375732,-0.7605895996,,,,,,,,,,,,,,,,,,,,,,,,
1451522738999.89,,,,,,,,,,,,,,52.4922473822278,13.3871677983677,196.5234375,17.8700008392334,36.2789306640625,10.0,3.0,,,,,,,
46344317.81325,,,,,0.7288520629,-0.1761422734,0.2897902761,,,,,,,,,,,,,,,,,,,,
46344.3177537083,,,,,,,,,,,-87.1143035889,-143.2845306396,245.8837432861,,,,,,,,,,,,,,
46344354.042375,0.2083892822,-0.9397277832,-0.3719940186,,,,,,,,,,,,,,,,,,,,,,,,
46344418.8765417,,,,,0.6997977744,-0.8549306363,0.6513032088,,,,,,,,,,,,,,,,,,,,
46344.4187966667,,,,,,,,,,,-89.4687500000,-143.2845306396,246.5376892090,,,,,,,,,,,,,,
46344459.0865417,-0.2097320557,-1.0039520264,-0.3922424316,,,,,,,,,,,,,,,,,,,,,,,,
46344519.8655417,,,,,0.3259738469,0.3572137918,-0.3587360546,,,,,,,,,,,,,,,,,,,,
46344.5198189583,,,,,,,,,,,-89.8050994873,-143.6208801270,248.8265075684,,,,,,,,,,,,,,
46344564.400375,0.1200103760,-0.8752136230,-0.1651306152,,,,,,,,,,,,,,,,,,,,,,,,
46344621.16825,,,,,0.2038071908,-0.1806523368,0.1499610031,,,,,,,,,,,,,,,,,,,,
46344.6208770833,,,,,,,,,,,-90.6459655762,-142.7800140381,249.9709167480,,,,,,,,,,,,,,
46344669.7724583,0.0109100342,-0.9420013428,-0.0848541260,,,,,,,,,,,,,,,,,,,,,,,,
46344722.0411667,,,,,-0.7832149039,0.8180061741,-0.2726126208,,,,,,,,,,,,,,,,,,,,
46344.7219538333,,,,,,,,,,,-90.1414489746,-143.9572296143,249.4804534912,,,,,,,,,,,,,,
46344775.0697083,0.1084289551,-0.9457244873,-0.2933197021,,,,,,,,,,,,,,,,,,,,,,,,
46344823.0584583,,,,,0.3569187135,-0.0478769785,0.5674831430,,,,,,,,,,,,,,,,,,,,
46344.8229919583,,,,,,,,,,,-92.4958801270,-143.6208801270,250.4613647461,,,,,,,,,,,,,,
46344880.26325,-0.2467193604,-0.9966888428,-0.3213958740,,,,,,,,,,,,,,,,,,,,,,,,
46344923.86,,,,,0.2308843486,0.5755810169,0.1347887080,,,,,,,,,,,,,,,,,,,,
46344.9237982917,,,,,,,,,,,-92.1595458984,-143.2845306396,250.7883453369,,,,,,,,,,,,,,
46344985.2899583,-0.2287597656,-0.8835754395,0.0755310059,,,,,,,,,,,,,,,,,,,,,,,,
46345025.0121667,,,,,-2.5887598261,2.0610075844,-0.6475649296,,,,,,,,,,,,,,,,,,,,
46345.0249290417,,,,,,,,,,,-89.1324005127,-144.2935791016,247.8455810547,,,,,,,,,,,,,,
46345090.8668333,0.4253845215,-0.6617584229,-1.5466003418,,,,,,,,,,,,,,,,,,,,,,,,
46345126.0426667,,,,,-1.6507926259,4.6221035584,1.4954451132,,,,,,,,,,,,,,,,,,,,
46345.12596975,,,,,,,,,,,-81.7327270508,-139.5847015381,244.5758514404,,,,,,,,,,,,,,
46345196.0777917,0.4327239990,-0.8252410889,-0.6806793213,,,,,,,,,,,,,,,,,,,,,,,,
46345227.0973333,,,,,1.4369969831,-0.4368849189,-0.1448285590,,,,,,,,,,,,,,,,,,,,
46345.227017,,,,,,,,,,,-83.9189910889,-139.0801696777,241.7965850830,,,,,,,,,,,,,,
46345300.8880833,0.2059478760,-0.7887878418,-0.0233917236,,,,,,,,,,,,,,,,,,,,,,,,
1451522739999.89,,,,,,,,,,,,,,52.4921003165034,13.3871107440986,196.015502929688,17.6399993896484,35.4669799804688,10.0,4.0,,,,,,,
46345327.578625,,,,,0.0793576731,-0.6812808153,-0.6000179168,,,,,,,,,,,,,,,,,,,,
46345.32751625,,,,,,,,,,,-83.0781250000,-142.2754821777,239.0173187256,,,,,,,,,,,,,,
46345405.9179583,0.2914886475,-0.8497772217,-0.5324707031,,,,,,,,,,,,,,,,,,,,,,,,
46345428.637375,,,,,-0.2776617079,-0.4158608600,0.8134404507,,,,,,,,,,,,,,,,,,,,
46345.4285637917,,,,,,,,,,,-80.7236785889,-142.6118316650,236.7285003662,,,,,,,,,,,,,,
46345511.237875,0.0072326660,-0.9219207764,-0.8687896729,,,,,,,,,,,,,,,,,,,,,,,,
46345529.680625,,,,,-1.0171067604,-1.7340933754,-0.6612389302,,,,,,,,,,,,,,,,,,,,
46345.5296072083,,,,,,,,,,,-80.5555114746,-142.4436645508,234.2761993408,,,,,,,,,,,,,,
46345616.4586667,0.3426361084,-0.5684509277,-1.3759002686,,,,,,,,,,,,,,,,,,,,,,,,
46345630.7294167,,,,,1.2049594857,0.3467150781,-0.9845554750,,,,,,,,,,,,,,,,,,,,
46345.6306513333,,,,,,,,,,,-82.7417755127,-143.6208801270,235.7475891113,,,,,,,,,,,,,,
46345721.4176667,0.0596008301,-0.5628814697,-0.3699188232,,,,,,,,,,,,,,,,,,,,,,,,
46345731.7744583,,,,,0.4843411180,-0.2913847107,-0.3174530630,,,,,,,,,,,,,,,,,,,,
46345.7317069167,,,,,,,,,,,-87.9551849365,-144.7980957031,235.9110717773,,,,,,,,,,,,,,
46345826.6607083,0.1586914062,-0.7395477295,-0.4069061279,,,,,,,,,,,,,,,,,,,,,,,,
46345832.937125,,,,,-0.3907001130,-0.1782158107,-0.0520839741,,,,,,,,,,,,,,,,,,,,
46345.8327459583,,,,,,,,,,,-86.7779541016,-142.2754821777,235.4206085205,,,,,,,,,,,,,,
46345931.873875,0.4467010498,-0.6168823242,-1.0268402100,,,,,,,,,,,,,,,,,,,,,,,,
46345933.9732917,,,,,-1.0564568297,0.2404970286,-0.2263180926,,,,,,,,,,,,,,,,,,,,
46345.93378375,,,,,,,,,,,-81.9009094238,-139.0801696777,229.6985778809,,,,,,,,,,,,,,
46346034.9049583,,,,,-0.4539544499,1.3866592438,-0.8215519068,,,,,,,,,,,,,,,,,,,,
46346037.0791667,0.3211364746,-0.4204254150,-0.2931213379,,,,,,,,,,,,,,,,,,,,,,,,
46346.0348345417,,,,,,,,,,,-73.6603698730,-135.2121734619,230.5160217285,,,,,,,,,,,,,,
46346135.9621667,,,,,0.3954269576,-0.7205169013,1.5195318074,,,,,,,,,,,,,,,,,,,,
46346142.3442083,0.1355590820,-0.2199401855,-0.7679901123,,,,,,,,,,,,,,,,,,,,,,,,
46346.1358789167,,,,,,,,,,,-67.1015625000,-132.0168609619,238.5268554688,,,,,,,,,,,,,,
46346237.0317917,,,,,-0.0730150887,-0.1465723969,1.1739845254,,,,,,,,,,,,,,,,,,,,
46346.236934875,,,,,,,,,,,-68.2787780762,-134.5394744873,242.2870483398,,,,,,,,,,,,,,
46346247.5486667,-0.0772399902,-0.5366668701,-1.0254211426,,,,,,,,,,,,,,,,,,,,,,,,
1451522740999.89,,,,,,,,,,,,,,52.4919394322312,13.3870114069143,195.448867797852,18.4099998474121,36.3296508789062,10.0,3.0,,,,,,,
46346338.0486667,,,,,0.7640308230,0.4206771868,0.3359521789,,,,,,,,,,,,,,,,,,,,
46346.337975875,,,,,,,,,,,-68.9514770508,-135.8848571777,244.9028320312,,,,,,,,,,,,,,
46346352.206625,0.0671081543,-0.5936431885,-0.7450714111,,,,,,,,,,,,,,,,,,,,,,,,
46346439.0085,,,,,-0.0625613824,0.9468379234,0.0528277950,,,,,,,,,,,,,,,,,,,,
46346.4389398333,,,,,,,,,,,-66.7652130127,-135.3803405762,248.0090789795,,,,,,,,,,,,,,
46346457.45925,0.0428009033,-0.6898651123,-0.9830017090,,,,,,,,,,,,,,,,,,,,,,,,
46346540.040375,,,,,-0.0574859300,0.6862782371,-0.9873842847,,,,,,,,,,,,,,,,,,,,
46346.5399772083,,,,,,,,,,,-66.7652130127,-133.3622436523,249.3169708252,,,,,,,,,,,,,,
46346562.654125,0.4201965332,-0.4985961914,-0.8387756348,,,,,,,,,,,,,,,,,,,,,,,,
46346641.108875,,,,,0.4082719162,-0.6365626122,-0.0275935447,,,,,,,,,,,,,,,,,,,,
46346.64103,,,,,,,,,,,-67.4379119873,-134.3712921143,247.6820983887,,,,,,,,,,,,,,
46346667.9009583,0.0175018311,-0.5187225342,-0.7247467041,,,,,,,,,,,,,,,,,,,,,,,,
46346742.149,,,,,-0.0314964073,0.5910688966,-0.3682786935,,,,,,,,,,,,,,,,,,,,
46346.7420725417,,,,,,,,,,,-67.1015625000,-132.0168609619,248.9899902344,,,,,,,,,,,,,,
46346773.2296667,0.5650482178,-0.3303070068,-0.7859344482,,,,,,,,,,,,,,,,,,,,,,,,
46346843.1835833,,,,,-0.4762275314,0.6447787305,0.7584131510,,,,,,,,,,,,,,,,,,,,
46346.8431140833,,,,,,,,,,,-68.6151275635,-132.1850280762,251.1153259277,,,,,,,,,,,,,,
46346878.4125417,0.1180267334,-0.5758209229,-0.9505310059,,,,,,,,,,,,,,,,,,,,,,,,
46346944.3500833,,,,,-0.0394419484,0.4837190035,-0.2630934178,,,,,,,,,,,,,,,,,,,,
46346.9441614583,,,,,,,,,,,-68.9514770508,-130.5032806396,252.0962371826,,,,,,,,,,,,,,
46346983.5382083,0.1967773438,-0.4070129395,-0.7014617920,,,,,,,,,,,,,,,,,,,,,,,,
46347045.3198333,,,,,-0.3299531422,0.8034775651,-0.7091175066,,,,,,,,,,,,,,,,,,,,
46347.0452040417,,,,,,,,,,,-65.9243469238,-127.8125000000,255.3659667969,,,,,,,,,,,,,,
46347088.7961667,0.4673461914,-0.4333953857,-0.5551147461,,,,,,,,,,,,,,,,,,,,,,,,
46347146.3519583,,,,,-0.5687167192,-0.3980211428,-0.8737011283,,,,,,,,,,,,,,,,,,,,
46347.146264875,,,,,,,,,,,-65.5879974365,-124.7853546143,253.7311096191,,,,,,,,,,,,,,
46347193.1394167,0.6090240479,-0.2557067871,-0.9470367432,,,,,,,,,,,,,,,,,,,,,,,,
46347247.3944583,,,,,0.5241710889,0.1607553276,0.4956552915,,,,,,,,,,,,,,,,,,,,
46347.247311375,,,,,,,,,,,-65.9243469238,-127.4761505127,253.7311096191,,,,,,,,,,,,,,
46347298.0005417,0.4064178467,-0.3961181641,-1.0113220215,,,,,,,,,,,,,,,,,,,,,,,,
1451522741999.89,,,,,,,,,,,,,,52.4917571823703,13.3869573294214,194.786087036133,19.8199996948242,36.517333984375,10.0,3.0,,,,,,,
46347348.4304167,,,,,-0.0331808567,2.1727897765,-0.2564259277,,,,,,,,,,,,,,,,,,,,
46347.3483545,,,,,,,,,,,-65.7561645508,-127.6443176270,257.8182678223,,,,,,,,,,,,,,
46347403.1775417,0.8197631836,-0.3812713623,-0.6414031982,,,,,,,,,,,,,,,,,,,,,,,,
46347449.4555833,,,,,0.1748399877,-0.2480071428,0.1264668623,,,,,,,,,,,,,,,,,,,,
46347.4493920833,,,,,,,,,,,-66.0925140381,-126.9716186523,256.8373413086,,,,,,,,,,,,,,
46347507.6614167,0.5699615479,-0.3099517822,-0.9193878174,,,,,,,,,,,,,,,,,,,,,,,,
46347550.5007083,,,,,0.2276171826,0.0276931469,-0.0037300234,,,,,,,,,,,,,,,,,,,,
46347.55043125,,,,,,,,,,,-67.2697448730,-127.4761505127,256.3468933105,,,,,,,,,,,,,,
46347611.9219583,0.5659484863,-0.5445098877,-0.6603851318,,,,,,,,,,,,,,,,,,,,,,,,
46347651.5264583,,,,,0.1904197464,-0.7452078668,-0.1527866170,,,,,,,,,,,,,,,,,,,,
46347.65146125,,,,,,,,,,,-67.2697448730,-125.4580535889,257.9817504883,,,,,,,,,,,,,,
46347715.1292083,0.4969482422,-0.2261657715,-1.0129547119,,,,,,,,,,,,,,,,,,,,,,,,
46347752.5355833,,,,,0.2974354127,-0.5359832736,-0.2384317471,,,,,,,,,,,,,,,,,,,,
46347.7524839167,,,,,,,,,,,-69.6241760254,-126.1307525635,255.3659667969,,,,,,,,,,,,,,
46347819.1677917,0.4527740479,-0.2792510986,-0.8605346680,,,,,,,,,,,,,,,,,,,,,,,,
46347853.6550833,,,,,-0.0666565252,0.0029704899,0.0228603085,,,,,,,,,,,,,,,,,,,,
46347.8535947083,,,,,,,,,,,-68.7833099365,-125.6262359619,254.2215576172,,,,,,,,,,,,,,
46347923.7725833,0.4020080566,-0.2450714111,-0.8901977539,,,,,,,,,,,,,,,,,,,,,,,,
46347954.661625,,,,,0.1343365033,0.1122716810,0.1067900966,,,,,,,,,,,,,,,,,,,,
46347.9545936667,,,,,,,,,,,-69.7923583984,-124.2808380127,254.2215576172,,,,,,,,,,,,,,
46348027.314375,0.3802337646,-0.2897338867,-0.9791717529,,,,,,,,,,,,,,,,,,,,,,,,
46348055.2969167,,,,,-0.1306719936,-0.0938327526,-0.3136340900,,,,,,,,,,,,,,,,,,,,
46348.0552444583,,,,,,,,,,,-66.9333953857,-123.4399566650,255.3659667969,,,,,,,,,,,,,,
46348130.7887083,0.5992431641,-0.2905731201,-0.8959808350,,,,,,,,,,,,,,,,,,,,,,,,
46348155.3997083,,,,,-0.3816738611,-0.3331350871,0.8779312934,,,,,,,,,,,,,,,,,,,,
46348.15534925,,,,,,,,,,,-65.0834655762,-124.9535369873,255.2024841309,,,,,,,,,,,,,,
46348236.0725,0.4332427979,-0.4054260254,-0.9227905273,,,,,,,,,,,,,,,,,,,,,,,,
46348256.489125,,,,,-0.1450956741,0.8139983830,0.0071716265,,,,,,,,,,,,,,,,,,,,
46348.2564010417,,,,,,,,,,,-67.6060943604,-126.4671020508,256.3468933105,,,,,,,,,,,,,,
1451522742999.89,,,,,,,,,,,,,,52.4915913462705,13.3868269335377,194.786087036133,17.4899997711182,36.8170776367188,10.0,3.0,,,,,,,
46348339.8664583,0.5720520020,-0.3497314453,-0.7738952637,,,,,,,,,,,,,,,,,,,,,,,,
46348357.561875,,,,,-1.2487687520,0.7029645392,0.5385622788,,,,,,,,,,,,,,,,,,,,
46348.3575079583,,,,,,,,,,,-65.2516479492,-126.8034515381,260.2705688477,,,,,,,,,,,,,,
46348444.5519583,1.0846405029,-0.1074676514,-0.7223052979,,,,,,,,,,,,,,,,,,,,,,,,
46348458.6557083,,,,,1.2094210795,0.2413862580,-0.6087924999,,,,,,,,,,,,,,,,,,,,
46348.4585505417,,,,,,,,,,,-63.5699005127,-124.7853546143,256.3468933105,,,,,,,,,,,,,,
46348548.8079583,0.6716766357,-0.1780395508,-0.6203613281,,,,,,,,,,,,,,,,,,,,,,,,
46348559.63425,,,,,0.4339067059,-0.4053453685,0.5136633205,,,,,,,,,,,,,,,,,,,,
46348.5595814167,,,,,,,,,,,-67.6060943604,-128.1488494873,254.3850555420,,,,,,,,,,,,,,
46348654.143375,0.6745147705,-0.2202148438,-0.4219818115,,,,,,,,,,,,,,,,,,,,,,,,
46348660.7307917,,,,,2.0745550849,-1.2207821247,-0.2743402134,,,,,,,,,,,,,,,,,,,,
46348.6606305,,,,,,,,,,,-70.6332244873,-130.1669311523,252.7501831055,,,,,,,,,,,,,,
46348759.349875,0.4002838135,-0.4060821533,-1.0562286377,,,,,,,,,,,,,,,,,,,,,,,,
46348761.7375417,,,,,-1.6161363780,-0.8594425638,0.2871281803,,,,,,,,,,,,,,,,,,,,
46348.76166875,,,,,,,,,,,-74.8375854492,-128.6533660889,253.5676116943,,,,,,,,,,,,,,
46348862.7687917,,,,,0.4991166020,-0.1235400482,1.0747964222,,,,,,,,,,,,,,,,,,,,
46348864.537625,0.1912994385,-0.3739013672,-0.9402008057,,,,,,,,,,,,,,,,,,,,,,,,
46348.8627049583,,,,,,,,,,,-75.6784515381,-129.1578826904,253.0771636963,,,,,,,,,,,,,,
46348963.8072083,,,,,-0.4059754724,0.7942246782,0.8561543588,,,,,,,,,,,,,,,,,,,,
46348969.7295417,0.3029632568,-0.6285552979,-0.7694549561,,,,,,,,,,,,,,,,,,,,,,,,
46348.963740625,,,,,,,,,,,-76.3511505127,-131.1759796143,254.0580749512,,,,,,,,,,,,,,
46349064.853125,,,,,0.0924825299,-0.6951723962,0.0830253786,,,,,,,,,,,,,,,,,,,,
46349.0647814167,,,,,,,,,,,-78.2010650635,-131.0078125000,253.5676116943,,,,,,,,,,,,,,
46349074.980125,0.1541137695,-0.3211364746,-0.7111968994,,,,,,,,,,,,,,,,,,,,,,,,
46349165.8914583,,,,,-0.4269667744,-0.4854838804,-0.3569357577,,,,,,,,,,,,,,,,,,,,
46349.165821125,,,,,,,,,,,-77.8647155762,-128.9897155762,251.2788085938,,,,,,,,,,,,,,
46349179.591875,0.2466583252,-0.4136047363,-1.1036376953,,,,,,,,,,,,,,,,,,,,,,,,
46349266.9525,,,,,-0.0636218532,-0.1871171603,-0.1415291688,,,,,,,,,,,,,,,,,,,,
46349.26686725,,,,,,,,,,,-76.8556823730,-129.6624145508,252.5867004395,,,,,,,,,,,,,,
46349284.7987083,0.2991333008,-0.3626098633,-0.9723358154,,,,,,,,,,,,,,,,,,,,,,,,
1451522743999.89,,,,,,,,,,,,,,52.4914457530326,13.3867942769645,194.786087036133,17.5400009155273,36.77783203125,10.0,3.0,,,,,,,
46349368.0310417,,,,,0.0360464180,0.3060107914,0.3249440025,,,,,,,,,,,,,,,,,,,,
46349.3679621667,,,,,,,,,,,-79.3782958984,-130.5032806396,253.4041290283,,,,,,,,,,,,,,
46349390.0038333,0.1545104980,-0.3731689453,-0.8262176514,,,,,,,,,,,,,,,,,,,,,,,,
46349469.0755,,,,,-1.2025597113,0.3103860987,-0.1840342850,,,,,,,,,,,,,,,,,,,,
46349.4690045,,,,,,,,,,,-81.5645599365,-130.6714630127,254.2215576172,,,,,,,,,,,,,,
46349495.25075,0.1774597168,-0.3958282471,-1.0829162598,,,,,,,,,,,,,,,,,,,,,,,,
46349570.1265833,,,,,-0.2456872632,0.3222171919,0.0571884549,,,,,,,,,,,,,,,,,,,,
46349.570049,,,,,,,,,,,-82.0690765381,-129.1578826904,252.4232177734,,,,,,,,,,,,,,
46349600.5044167,0.1959075928,-0.2028656006,-0.8759155273,,,,,,,,,,,,,,,,,,,,,,,,
46349671.1771667,,,,,-0.3802927458,0.1663205353,-0.0318926856,,,,,,,,,,,,,,,,,,,,
46349.6711005417,,,,,,,,,,,-81.0600280762,-128.1488494873,254.3850555420,,,,,,,,,,,,,,
46349705.715875,0.2715759277,-0.2773895264,-1.0807342529,,,,,,,,,,,,,,,,,,,,,,,,
46349772.3296667,,,,,-0.2943916859,0.0639749883,-0.0679177983,,,,,,,,,,,,,,,,,,,,
46349.7721405417,,,,,,,,,,,-79.3782958984,-127.8125000000,253.7311096191,,,,,,,,,,,,,,
46349811.0035833,0.2687683105,-0.2694702148,-1.1741790771,,,,,,,,,,,,,,,,,,,,,,,,
46349873.2410417,,,,,0.5750707553,-0.2279932209,0.2221481150,,,,,,,,,,,,,,,,,,,,
46349.8731785833,,,,,,,,,,,-81.0600280762,-128.1488494873,253.7311096191,,,,,,,,,,,,,,
46349915.389375,0.1480560303,-0.2793426514,-0.9226379395,,,,,,,,,,,,,,,,,,,,,,,,
46349974.2766667,,,,,0.0604486967,0.1984691508,-0.0144556384,,,,,,,,,,,,,,,,,,,,
46349.9742146667,,,,,,,,,,,-81.7327270508,-127.8125000000,254.7120208740,,,,,,,,,,,,,,
46350020.6285,0.2571716309,-0.2312469482,-0.8162994385,,,,,,,,,,,,,,,,,,,,,,,,
46350075.337625,,,,,-0.1074976985,0.1687743720,0.0610063627,,,,,,,,,,,,,,,,,,,,
46350.0752585833,,,,,,,,,,,-81.2282104492,-127.9806671143,254.5485382080,,,,,,,,,,,,,,
46350125.8925833,0.3167877197,-0.2996520996,-1.0845031738,,,,,,,,,,,,,,,,,,,,,,,,
46350176.4935417,,,,,0.2664463376,0.0541716260,0.1532377565,,,,,,,,,,,,,,,,,,,,
46350.176298375,,,,,,,,,,,-81.3963775635,-128.4851989746,253.7311096191,,,,,,,,,,,,,,
46350231.1222917,0.1757354736,-0.2152709961,-0.9227447510,,,,,,,,,,,,,,,,,,,,,,,,
46350277.412125,,,,,0.7296286407,-0.6172509659,-0.0697151658,,,,,,,,,,,,,,,,,,,,
46350.2773415417,,,,,,,,,,,-80.3873291016,-129.4942321777,253.0771636963,,,,,,,,,,,,,,
1451522744999.89,,,,,,,,,,,,,,52.4913459863383,13.3867551161527,194.786087036133,14.9799995422363,36.7427978515625,10.0,3.0,,,,,,,
46350335.5640417,0.2248077393,-0.3793334961,-0.7475128174,,,,,,,,,,,,,,,,,,,,,,,,
46350377.7511667,,,,,0.3773126685,-0.0371116824,0.3924458151,,,,,,,,,,,,,,,,,,,,
46350.3777194167,,,,,,,,,,,-85.0962219238,-129.4942321777,251.1153259277,,,,,,,,,,,,,,
46350440.7726667,-0.0759735107,-0.4221954346,-0.8688354492,,,,,,,,,,,,,,,,,,,,,,,,
46350478.8317083,,,,,0.4150051864,-0.0581437308,-0.1691876946,,,,,,,,,,,,,,,,,,,,
46350.47876075,,,,,,,,,,,-81.7327270508,-131.1759796143,250.4613647461,,,,,,,,,,,,,,
46350545.970125,0.1442413330,-0.5179138184,-0.9153289795,,,,,,,,,,,,,,,,,,,,,,,,
46350579.8815833,,,,,0.4361711918,0.3201689547,0.1393341914,,,,,,,,,,,,,,,,,,,,
46350.579805625,,,,,,,,,,,-83.0781250000,-132.1850280762,252.0962371826,,,,,,,,,,,,,,
46350651.2681667,0.0542297363,-0.5163726807,-0.8866424561,,,,,,,,,,,,,,,,,,,,,,,,
46350680.91225,,,,,0.0006103965,0.1070058126,0.0236840242,,,,,,,,,,,,,,,,,,,,
46350.6808452083,,,,,,,,,,,-83.2462921143,-133.6985931396,249.9709167480,,,,,,,,,,,,,,
46350756.2460833,0.1455688477,-0.4772033691,-0.9981842041,,,,,,,,,,,,,,,,,,,,,,,,
46350782.0892917,,,,,-0.5784369909,0.0669707782,-0.5342221252,,,,,,,,,,,,,,,,,,,,
46350.7819985833,,,,,,,,,,,-82.7417755127,-134.2031250000,253.7311096191,,,,,,,,,,,,,,
46350861.481875,0.1716918945,-0.4052581787,-0.8661499023,,,,,,,,,,,,,,,,,,,,,,,,
46350882.724375,,,,,0.2609104246,0.1271323862,0.1958533939,,,,,,,,,,,,,,,,,,,,
46350.8825847917,,,,,,,,,,,-81.9009094238,-134.0349426270,253.2406463623,,,,,,,,,,,,,,
46350966.7192083,0.0910797119,-0.5228271484,-0.8403015137,,,,,,,,,,,,,,,,,,,,,,,,
46350983.6847917,,,,,-0.3403943316,0.0540440606,-0.1929236504,,,,,,,,,,,,,,,,,,,,
46350.9836211667,,,,,,,,,,,-82.0690765381,-134.2031250000,253.4041290283,,,,,,,,,,,,,,
46351071.93175,0.0337371826,-0.4314727783,-0.8057098389,,,,,,,,,,,,,,,,,,,,,,,,
46351084.752875,,,,,-0.1404172990,-0.0001012001,0.1296754387,,,,,,,,,,,,,,,,,,,,
46351.0846719167,,,,,,,,,,,-82.0690765381,-132.5213775635,254.0580749512,,,,,,,,,,,,,,
46351177.141,0.2610931396,-0.4226531982,-0.8873291016,,,,,,,,,,,,,,,,,,,,,,,,
46351185.9067917,,,,,0.3063878950,-0.0070416642,-0.1117750015,,,,,,,,,,,,,,,,,,,,
46351.1858260417,,,,,,,,,,,-81.5645599365,-132.3531951904,252.9136657715,,,,,,,,,,,,,,
46351282.4650833,-0.0054931641,-0.4889373779,-0.9709320068,,,,,,,,,,,,,,,,,,,,,,,,
46351286.9767917,,,,,-0.0999154125,-0.0587402789,0.0844909161,,,,,,,,,,,,,,,,,,,,
46351.286884,,,,,,,,,,,-82.0690765381,-128.8215484619,253.0771636963,,,,,,,,,,,,,,
1451522745999.89,,,,,,,,,,,,,,52.4912984554814,13.3866855866812,194.4140625,13.6700000762939,36.7476806640625,10.0,3.0,,,,,,,
46351387.6830417,0.1323547363,-0.4423980713,-0.7753295898,,,,,,,,,,,,,,,,,,,,,,,,
46351387.8881667,,,,,0.3332434777,0.1330501965,-0.0161390225,,,,,,,,,,,,,,,,,,,,
46351.3877485833,,,,,,,,,,,-79.7146453857,-130.5032806396,250.4613647461,,,,,,,,,,,,,,
46351488.8516667,,,,,-1.2490915271,0.6094010322,-0.4270794261,,,,,,,,,,,,,,,,,,,,
46351492.0154583,0.1077117920,-0.4409790039,-1.1252899170,,,,,,,,,,,,,,,,,,,,,,,,
46351.4887865833,,,,,,,,,,,-80.5555114746,-132.3531951904,251.6057739258,,,,,,,,,,,,,,
46351589.9056667,,,,,-0.6361793833,0.1684585211,0.0653912574,,,,,,,,,,,,,,,,,,,,
46351597.2398333,0.1057281494,-0.3163757324,-0.9829254150,,,,,,,,,,,,,,,,,,,,,,,,
46351.589828125,,,,,,,,,,,-80.7236785889,-130.5032806396,254.3850555420,,,,,,,,,,,,,,
46351690.9505833,,,,,0.4163495501,-0.1213525277,0.0127845048,,,,,,,,,,,,,,,,,,,,
46351.69087125,,,,,,,,,,,-81.2282104492,-129.6624145508,254.8755035400,,,,,,,,,,,,,,
46351701.8476667,0.2268829346,-0.3321685791,-0.7250061035,,,,,,,,,,,,,,,,,,,,,,,,
46351792.0480833,,,,,-0.0920886484,0.0114281569,-0.1341719199,,,,,,,,,,,,,,,,,,,,
46351.7919192917,,,,,,,,,,,-80.0509796143,-131.5123291016,255.0390014648,,,,,,,,,,,,,,
46351807.0438333,0.2990264893,-0.2983245850,-1.0176239014,,,,,,,,,,,,,,,,,,,,,,,,
46351893.0197083,,,,,0.1778826492,0.0294529638,-0.0849780083,,,,,,,,,,,,,,,,,,,,
46351.8929558333,,,,,,,,,,,-80.0509796143,-130.5032806396,252.7501831055,,,,,,,,,,,,,,
46351912.2890833,0.2291412354,-0.2664489746,-0.7792968750,,,,,,,,,,,,,,,,,,,,,,,,
46351994.0565,,,,,-0.2949355033,-0.0221164876,-0.0277711775,,,,,,,,,,,,,,,,,,,,
46351.9939925833,,,,,,,,,,,-80.8918609619,-129.9987640381,254.5485382080,,,,,,,,,,,,,,
46352017.495125,0.1778717041,-0.2877655029,-1.1092834473,,,,,,,,,,,,,,,,,,,,,,,,
46352095.1136667,,,,,0.2070762211,-0.0121432156,0.0885626231,,,,,,,,,,,,,,,,,,,,
46352.0950355417,,,,,,,,,,,-79.0419464111,-130.8396301270,255.6929473877,,,,,,,,,,,,,,
46352122.80475,0.1398315430,-0.2514648438,-0.9106750488,,,,,,,,,,,,,,,,,,,,,,,,
46352196.28025,,,,,0.3222725856,0.0423429298,0.0713439551,,,,,,,,,,,,,,,,,,,,
46352.19607375,,,,,,,,,,,-79.5464630127,-127.9806671143,256.5103759766,,,,,,,,,,,,,,
46352228.1222083,0.1605529785,-0.2806396484,-0.8277130127,,,,,,,,,,,,,,,,,,,,,,,,
46352297.1479167,,,,,-0.3341678609,0.2285101405,-0.0155962703,,,,,,,,,,,,,,,,,,,,
1451522746999.89,,,,,,,,,,,,,,52.4911280150717,13.3866446425704,193.576751708984,12.8699998855591,36.6185302734375,10.0,3.0,,,,,,,
46352.2970995417,,,,,,,,,,,-78.5374145508,-126.9716186523,255.5294494629,,,,,,,,,,,,,,
46352333.37075,0.2752532959,-0.2580261230,-0.9207458496,,,,,,,,,,,,,,,,,,,,,,,,
46352398.3266667,,,,,-0.1386558843,0.1155321891,0.0552605926,,,,,,,,,,,,,,,,,,,,
46352.3981366667,,,,,,,,,,,-79.3782958984,-128.1488494873,254.0580749512,,,,,,,,,,,,,,
46352438.5045833,0.1830444336,-0.2364349365,-0.9700164795,,,,,,,,,,,,,,,,,,,,,,,,
46352499.2370417,,,,,-0.3036576222,0.1561651032,-0.0926377922,,,,,,,,,,,,,,,,,,,,
46352.4991748333,,,,,,,,,,,-79.5464630127,-129.3260650635,253.5676116943,,,,,,,,,,,,,,
46352543.6915,0.2776794434,-0.2526550293,-1.0101470947,,,,,,,,,,,,,,,,,,,,,,,,
46352600.2899583,,,,,0.3359468526,-0.0902396156,0.1527488001,,,,,,,,,,,,,,,,,,,,
46352.600217,,,,,,,,,,,-80.3873291016,-129.8305816650,253.7311096191,,,,,,,,,,,,,,
46352648.9022083,0.1082611084,-0.2669372559,-0.9198455811,,,,,,,,,,,,,,,,,,,,,,,,
46352700.4819167,,,,,-0.4167831127,0.2162880953,-0.1876567167,,,,,,,,,,,,,,,,,,,,
46352.7003843333,,,,,,,,,,,-80.0509796143,-128.8215484619,252.7501831055,,,,,,,,,,,,,,
46352754.1735417,0.1698760986,-0.2755889893,-0.7849578857,,,,,,,,,,,,,,,,,,,,,,,,
46352801.4887083,,,,,-0.2254091557,-0.0429586526,-0.0199289671,,,,,,,,,,,,,,,,,,,,
46352.801424125,,,,,,,,,,,-81.9009094238,-129.6624145508,252.9136657715,,,,,,,,,,,,,,
46352859.3723333,0.2125549316,-0.2611694336,-0.8765716553,,,,,,,,,,,,,,,,,,,,,,,,
46352902.58675,,,,,-0.0699007881,0.1071062138,-0.0822581219,,,,,,,,,,,,,,,,,,,,
46352.9025135,,,,,,,,,,,-81.0600280762,-129.8305816650,254.0580749512,,,,,,,,,,,,,,
46352964.5653333,0.1341857910,-0.2708282471,-1.0559692383,,,,,,,,,,,,,,,,,,,,,,,,
46353003.6241667,,,,,0.2164699892,0.0819276236,0.0507294903,,,,,,,,,,,,,,,,,,,,
46353.0035545417,,,,,,,,,,,-80.8918609619,-129.3260650635,255.2024841309,,,,,,,,,,,,,,
46353069.7648333,0.2514343262,-0.2571411133,-1.0517578125,,,,,,,,,,,,,,,,,,,,,,,,
46353104.679625,,,,,0.0368480295,0.0662011247,-0.0344668971,,,,,,,,,,,,,,,,,,,,
46353.104598125,,,,,,,,,,,-80.8918609619,-131.3441619873,254.5485382080,,,,,,,,,,,,,,
46353175.0935417,0.1675262451,-0.2315063477,-0.9005584717,,,,,,,,,,,,,,,,,,,,,,,,
46353205.8357083,,,,,-0.1394527021,0.1604248293,0.0233756302,,,,,,,,,,,,,,,,,,,,
46353.2056378333,,,,,,,,,,,-80.2191619873,-132.3531951904,255.5294494629,,,,,,,,,,,,,,
46353280.43525,0.1821289062,-0.2877807617,-0.7771606445,,,,,,,,,,,,,,,,,,,,,,,,
46353306.9445,,,,,-0.0482844421,0.0331480998,0.0014895060,,,,,,,,,,,,,,,,,,,,
1451522747999.89,,,,,,,,,,,,,,52.491000127463,13.3865652786152,192.775512695312,14.3999996185303,36.7493896484375,10.0,3.0,,,,,,,
46353.3066894583,,,,,,,,,,,-81.2282104492,-130.6714630127,254.8755035400,,,,,,,,,,,,,,
46353384.9008333,0.2678680420,-0.3435821533,-1.3044738770,,,,,,,,,,,,,,,,,,,,,,,,
46353407.8037917,,,,,0.7423409738,0.2341403293,0.0558888323,,,,,,,,,,,,,,,,,,,,
46353.4077306667,,,,,,,,,,,-80.7236785889,-130.1669311523,254.7120208740,,,,,,,,,,,,,,
46353490.1002083,0.0601959229,-0.2575073242,-1.2810211182,,,,,,,,,,,,,,,,,,,,,,,,
46353508.8379583,,,,,1.1098478832,1.9526390323,-0.1322648303,,,,,,,,,,,,,,,,,,,,
46353.5087637917,,,,,,,,,,,-78.0328979492,-133.1940765381,254.0580749512,,,,,,,,,,,,,,
46353595.369625,0.4002227783,-0.3731689453,-0.6316833496,,,,,,,,,,,,,,,,,,,,,,,,
46353609.8786667,,,,,1.1737573578,0.7099779740,-0.1131457305,,,,,,,,,,,,,,,,,,,,
46353.6098054167,,,,,,,,,,,-75.0057525635,-133.8667755127,252.4232177734,,,,,,,,,,,,,,
46353700.5453333,0.4392547607,-0.4287567139,-0.4109497070,,,,,,,,,,,,,,,,,,,,,,,,
46353710.928875,,,,,0.7375648607,-0.2477219183,-0.6463486639,,,,,,,,,,,,,,,,,,,,
46353.7108504583,,,,,,,,,,,-73.3240203857,-134.5394744873,249.4804534912,,,,,,,,,,,,,,
46353805.7276667,0.5505981445,-0.5118408203,-0.3708953857,,,,,,,,,,,,,,,,,,,,,,,,
46353811.9546667,,,,,-0.1193607495,-0.0661997931,-0.2439586053,,,,,,,,,,,,,,,,,,,,
46353.8118885417,,,,,,,,,,,-71.8104400635,-133.3622436523,248.0090789795,,,,,,,,,,,,,,
46353910.9055,0.6619720459,-0.4053344727,-0.9570159912,,,,,,,,,,,,,,,,,,,,,,,,
46353912.9896667,,,,,-0.5197891237,0.4114195063,0.0116156434,,,,,,,,,,,,,,,,,,,,
46353.9129250417,,,,,,,,,,,-72.4831390381,-134.0349426270,248.0090789795,,,,,,,,,,,,,,
46354014.15025,,,,,-0.0477986816,0.2329214005,0.3549644859,,,,,,,,,,,,,,,,,,,,
46354016.105625,0.4612884521,-0.4201202393,-0.6309967041,,,,,,,,,,,,,,,,,,,,,,,,
46354.0139630417,,,,,,,,,,,-73.9967041016,-137.5666046143,249.8074188232,,,,,,,,,,,,,,
46354115.0722917,,,,,-0.2520471582,0.1360973854,0.1280522421,,,,,,,,,,,,,,,,,,,,
46354121.067875,0.5341491699,-0.5252685547,-0.3534393311,,,,,,,,,,,,,,,,,,,,,,,,
46354.115001,,,,,,,,,,,-77.1920166016,-138.4074707031,251.9327545166,,,,,,,,,,,,,,
46354216.1192917,,,,,-1.1423834559,-0.6334200821,0.7204801497,,,,,,,,,,,,,,,,,,,,
46354.216044,,,,,,,,,,,-78.3692474365,-135.2121734619,253.0771636963,,,,,,,,,,,,,,
46354226.3694583,0.1059112549,-0.2397155762,-0.8099212646,,,,,,,,,,,,,,,,,,,,,,,,
1451522748999.89,,,,,,,,,,,,,,52.4908858430962,13.3864933389881,192.179183959961,14.6199998855591,36.9509887695312,10.0,3.0,,,,,,,
46354317.1619167,,,,,0.0781360811,-0.0651574319,0.6778972692,,,,,,,,,,,,,,,,,,,,
46354.3170876667,,,,,,,,,,,-79.2101135254,-134.7076416016,255.5294494629,,,,,,,,,,,,,,
46354331.5786667,0.2725067139,-0.5908508301,-1.0153656006,,,,,,,,,,,,,,,,,,,,,,,,
46354418.1902083,,,,,0.0918028912,-1.2918065005,-0.2351784295,,,,,,,,,,,,,,,,,,,,
46354.41812575,,,,,,,,,,,-80.7236785889,-134.5394744873,253.0771636963,,,,,,,,,,,,,,
46354436.7819583,0.1343841553,-0.4253082275,-0.9320526123,,,,,,,,,,,,,,,,,,,,,,,,
46354519.3545,,,,,-0.7289628504,-1.3379276569,-0.5186080117,,,,,,,,,,,,,,,,,,,,
46354.5191642083,,,,,,,,,,,-80.0509796143,-132.8577270508,252.7501831055,,,,,,,,,,,,,,
46354541.9780417,0.3896789551,-0.3720245361,-1.2648773193,,,,,,,,,,,,,,,,,,,,,,,,
46354620.3740417,,,,,0.6424884119,0.4086279808,0.3815944989,,,,,,,,,,,,,,,,,,,,
46354.620294375,,,,,,,,,,,-80.7236785889,-131.1759796143,254.0580749512,,,,,,,,,,,,,,
46354647.1775,0.0505371094,-0.3677825928,-0.7029113770,,,,,,,,,,,,,,,,,,,,,,,,
46354721.4010833,,,,,-0.9608187202,-0.0402606041,-0.1738452970,,,,,,,,,,,,,,,,,,,,
46354.7213324167,,,,,,,,,,,-82.5736083984,-132.3531951904,255.2024841309,,,,,,,,,,,,,,
46354751.8515417,0.1887817383,-0.3793487549,-1.1186370850,,,,,,,,,,,,,,,,,,,,,,,,
46354822.4453333,,,,,0.0221444508,0.0179198783,-0.2081380234,,,,,,,,,,,,,,,,,,,,
46354.8223745417,,,,,,,,,,,-80.0509796143,-130.5032806396,255.3659667969,,,,,,,,,,,,,,
46354857.0560417,0.2438507080,-0.2558898926,-0.9523925781,,,,,,,,,,,,,,,,,,,,,,,,
46354923.475375,,,,,0.1023460796,-0.1785931806,0.0666626505,,,,,,,,,,,,,,,,,,,,
46354.923411625,,,,,,,,,,,-79.5464630127,-129.6624145508,255.2024841309,,,,,,,,,,,,,,
46354962.2512083,0.1171112061,-0.2991333008,-1.0340576172,,,,,,,,,,,,,,,,,,,,,,,,
46355024.5164167,,,,,0.0289983622,-0.2789474821,-0.2035917411,,,,,,,,,,,,,,,,,,,,
46355.0244508333,,,,,,,,,,,-82.4054260254,-129.4942321777,255.0390014648,,,,,,,,,,,,,,
46355066.6675417,0.1671142578,-0.3005981445,-1.0116119385,,,,,,,,,,,,,,,,,,,,,,,,
46355125.6889167,,,,,-0.1548489690,-0.2646431112,-0.4010275854,,,,,,,,,,,,,,,,,,,,
46355.1254908333,,,,,,,,,,,-80.5555114746,-129.3260650635,256.1834106445,,,,,,,,,,,,,,
46355171.2395833,0.2706298828,-0.2343444824,-1.0494689941,,,,,,,,,,,,,,,,,,,,,,,,
46355226.6027917,,,,,0.2150364096,-0.1205831405,-0.2070077778,,,,,,,,,,,,,,,,,,,,
46355.226530375,,,,,,,,,,,-79.7146453857,-128.8215484619,254.0580749512,,,,,,,,,,,,,,
46355276.50975,0.1572723389,-0.2103729248,-1.1120758057,,,,,,,,,,,,,,,,,,,,,,,,
1451522749999.89,,,,,,,,,,,,,,52.4907690045344,13.3864466661991,192.179183959961,13.9099998474121,36.882568359375,10.0,3.0,,,,,,,
46355327.638625,,,,,0.0758231257,-0.2448651454,0.0490639494,,,,,,,,,,,,,,,,,,,,
46355.327570125,,,,,,,,,,,-82.5736083984,-128.9897155762,254.2215576172,,,,,,,,,,,,,,
46355381.8019583,0.0613555908,-0.2951049805,-0.9094085693,,,,,,,,,,,,,,,,,,,,,,,,
46355428.6818333,,,,,0.4319151940,0.1129361397,0.1782642802,,,,,,,,,,,,,,,,,,,,
46355.428611625,,,,,,,,,,,-83.2462921143,-128.9897155762,253.8945922852,,,,,,,,,,,,,,
46355486.9919167,0.0870361328,-0.2848205566,-1.0630493164,,,,,,,,,,,,,,,,,,,,,,,,
46355529.173375,,,,,-0.4348768955,0.0597709222,-0.3542670040,,,,,,,,,,,,,,,,,,,,
46355.5291415833,,,,,,,,,,,-81.5645599365,-127.9806671143,254.8755035400,,,,,,,,,,,,,,
46355592.1982917,0.1584777832,-0.2122802734,-0.7752532959,,,,,,,,,,,,,,,,,,,,,,,,
46355630.38225,,,,,0.0252321197,0.0918066196,0.1109869721,,,,,,,,,,,,,,,,,,,,
46355.6301815417,,,,,,,,,,,-83.5826416016,-128.6533660889,254.5485382080,,,,,,,,,,,,,,
46355697.463125,0.1562042236,-0.2606353760,-1.0876464844,,,,,,,,,,,,,,,,,,,,,,,,
46355731.2882083,,,,,0.1315910505,0.0031590417,0.0393878862,,,,,,,,,,,,,,,,,,,,
46355.7312192917,,,,,,,,,,,-83.7508239746,-128.8215484619,253.0771636963,,,,,,,,,,,,,,
46355802.7463333,0.1003570557,-0.2861328125,-1.0369110107,,,,,,,,,,,,,,,,,,,,,,,,
46355831.5541667,,,,,0.2693116326,-0.0025667547,0.1886500758,,,,,,,,,,,,,,,,,,,,
46355.8314802083,,,,,,,,,,,-82.0690765381,-132.1850280762,255.3659667969,,,,,,,,,,,,,,
46355908.0040833,0.0625457764,-0.2515258789,-0.8328704834,,,,,,,,,,,,,,,,,,,,,,,,
46355932.1787083,,,,,0.0048613343,0.1361527791,0.0614923896,,,,,,,,,,,,,,,,,,,,
46355.9320740833,,,,,,,,,,,-83.0781250000,-130.1669311523,255.6929473877,,,,,,,,,,,,,,
46356013.059,0.0483551025,-0.3417510986,-1.1022796631,,,,,,,,,,,,,,,,,,,,,,,,
46356033.1913333,,,,,0.0021587584,0.0607070234,0.1040206753,,,,,,,,,,,,,,,,,,,,
46356.0331167083,,,,,,,,,,,-82.7417755127,-129.4942321777,255.3659667969,,,,,,,,,,,,,,
46356117.563,0.1153869629,-0.3177337646,-0.7876586914,,,,,,,,,,,,,,,,,,,,,,,,
46356134.2337917,,,,,-0.5358216197,0.0406041519,-0.1574713837,,,,,,,,,,,,,,,,,,,,
46356.134156625,,,,,,,,,,,-82.0690765381,-128.1488494873,255.3659667969,,,,,,,,,,,,,,
46356222.7817083,0.1680297852,-0.1876373291,-0.9731903076,,,,,,,,,,,,,,,,,,,,,,,,
46356235.276375,,,,,0.2558024817,0.0529337888,-0.0369814538,,,,,,,,,,,,,,,,,,,,
46356.2351989167,,,,,,,,,,,-81.3963775635,-128.4851989746,255.3659667969,,,,,,,,,,,,,,
1451522750999.89,,,,,,,,,,,,,,52.4906638646869,13.3864093981571,192.179183959961,13.5100002288818,36.580322265625,10.0,3.0,,,,,,,
46356328.1999167,0.1070556641,-0.2091217041,-1.0002593994,,,,,,,,,,,,,,,,,,,,,,,,
46356336.3793333,,,,,-0.1042632893,0.0617302099,0.0207524165,,,,,,,,,,,,,,,,,,,,
46356.336259625,,,,,,,,,,,-82.7417755127,-129.1578826904,255.0390014648,,,,,,,,,,,,,,
46356433.4527083,0.1159210205,-0.2293395996,-0.8385467529,,,,,,,,,,,,,,,,,,,,,,,,
46356437.3684583,,,,,0.5804745754,-0.0028517129,0.1170339457,,,,,,,,,,,,,,,,,,,,
46356.4372982083,,,,,,,,,,,-80.3873291016,-128.8215484619,255.0390014648,,,,,,,,,,,,,,
46356538.2585417,,,,,-0.1576865671,-0.1214478689,-0.0085572692,,,,,,,,,,,,,,,,,,,,
46356538.3207083,0.0799407959,-0.2373046875,-1.0922698975,,,,,,,,,,,,,,,,,,,,,,,,
46356.5381790833,,,,,,,,,,,-80.0509796143,-129.8305816650,255.0390014648,,,,,,,,,,,,,,
46356639.4372917,,,,,-0.1399568385,0.1143683877,-0.2142012423,,,,,,,,,,,,,,,,,,,,
46356643.5205417,0.0893096924,-0.1716003418,-0.9667205811,,,,,,,,,,,,,,,,,,,,,,,,
46356.639218875,,,,,,,,,,,-80.8918609619,-129.3260650635,255.2024841309,,,,,,,,,,,,,,
46356740.3395,,,,,-0.1625689403,-0.0296431135,-0.2472252387,,,,,,,,,,,,,,,,,,,,
46356748.895,0.1933593750,-0.1298675537,-1.0397644043,,,,,,,,,,,,,,,,,,,,,,,,
46356.7402618333,,,,,,,,,,,-79.5464630127,-131.0078125000,253.5676116943,,,,,,,,,,,,,,
46356841.3734167,,,,,-0.0913759865,0.0181270723,-0.0538046425,,,,,,,,,,,,,,,,,,,,
46356.8413025417,,,,,,,,,,,-80.3873291016,-130.1669311523,255.3659667969,,,,,,,,,,,,,,
46356854.087125,0.0989990234,-0.0874328613,-1.0431671143,,,,,,,,,,,,,,,,,,,,,,,,
46356942.4145,,,,,0.1441531814,0.1763609190,-0.0799765917,,,,,,,,,,,,,,,,,,,,
46356.9423438333,,,,,,,,,,,-80.0509796143,-130.1669311523,253.7311096191,,,,,,,,,,,,,,
46356959.2011667,0.1686248779,-0.1040039062,-0.9185028076,,,,,,,,,,,,,,,,,,,,,,,,
46357043.6795417,,,,,-0.3630575661,-0.0998411103,0.1557967880,,,,,,,,,,,,,,,,,,,,
46357.0433919583,,,,,,,,,,,-79.8828125000,-128.3170166016,254.5485382080,,,,,,,,,,,,,,
46357064.68,0.0248107910,-0.0805969238,-1.1465759277,,,,,,,,,,,,,,,,,,,,,,,,
46357144.5090833,,,,,0.2608635530,0.7576480248,-0.2458736845,,,,,,,,,,,,,,,,,,,,
46357.1444325,,,,,,,,,,,-80.8918609619,-128.3170166016,252.9136657715,,,,,,,,,,,,,,
46357169.8721667,0.1694183350,-0.0989837646,-1.1035156250,,,,,,,,,,,,,,,,,,,,,,,,
46357245.68725,,,,,0.8745232461,0.6233085921,-0.1574673889,,,,,,,,,,,,,,,,,,,,
46357.245473375,,,,,,,,,,,-78.3692474365,-129.1578826904,252.7501831055,,,,,,,,,,,,,,
46357274.4373333,0.2571868896,-0.1479797363,-0.7844238281,,,,,,,,,,,,,,,,,,,,,,,,
1451522751999.89,,,,,,,,,,,,,,52.4905579006763,13.3863723586209,191.650299072266,12.3000001907349,36.736328125,10.0,3.0,,,,,,,
46357346.5885,,,,,-0.2919924440,-0.3630652893,-0.1496837680,,,,,,,,,,,,,,,,,,,,
46357.3465124583,,,,,,,,,,,-79.5464630127,-129.3260650635,252.2597198486,,,,,,,,,,,,,,
46357379.1539583,0.2333221436,-0.1930541992,-1.0245056152,,,,,,,,,,,,,,,,,,,,,,,,
46357447.675375,,,,,-0.1305220577,-0.1488683081,-0.1080130201,,,,,,,,,,,,,,,,,,,,
46357.447579375,,,,,,,,,,,-79.5464630127,-128.9897155762,253.8945922852,,,,,,,,,,,,,,
46357484.4049583,0.2492065430,-0.1392211914,-1.0211486816,,,,,,,,,,,,,,,,,,,,,,,,
46357548.6934583,,,,,-0.0700059829,-0.2960929132,0.0581964614,,,,,,,,,,,,,,,,,,,,
46357.548621375,,,,,,,,,,,-80.2191619873,-127.9806671143,252.5867004395,,,,,,,,,,,,,,
46357588.5432083,0.0014648438,-0.3039550781,-0.9255218506,,,,,,,,,,,,,,,,,,,,,,,,
46357649.2899583,,,,,-0.3469377184,-0.2574584352,-0.2556709215,,,,,,,,,,,,,,,,,,,,
46357.6492140417,,,,,,,,,,,-80.0509796143,-128.8215484619,252.4232177734,,,,,,,,,,,,,,
46357693.8204583,0.1291503906,-0.1053771973,-1.1570434570,,,,,,,,,,,,,,,,,,,,,,,,
46357750.444875,,,,,0.4215618890,0.0503393372,0.0199249723,,,,,,,,,,,,,,,,,,,,
46357.7503504167,,,,,,,,,,,-80.5555114746,-129.3260650635,254.2215576172,,,,,,,,,,,,,,
46357799.0765833,0.2976226807,-0.2120208740,-1.0967407227,,,,,,,,,,,,,,,,,,,,,,,,
46357851.4722083,,,,,0.8822970133,-0.3152777930,0.7000909884,,,,,,,,,,,,,,,,,,,,
46357.8513964583,,,,,,,,,,,-83.4144744873,-131.1759796143,251.7692718506,,,,,,,,,,,,,,
46357904.10975,-0.1668395996,-0.1461334229,-0.7839813232,,,,,,,,,,,,,,,,,,,,,,,,
46357952.5114167,,,,,-0.7675089114,0.2611338638,0.1867826673,,,,,,,,,,,,,,,,,,,,
46357.9524380417,,,,,,,,,,,-85.0962219238,-133.5304260254,251.1153259277,,,,,,,,,,,,,,
46358008.584625,0.0472869873,-0.4035034180,-1.2133331299,,,,,,,,,,,,,,,,,,,,,,,,
46358053.52475,,,,,-0.1829272090,-0.1314549630,0.2965174210,,,,,,,,,,,,,,,,,,,,
46358.05348075,,,,,,,,,,,-85.4325714111,-133.1940765381,250.1343994141,,,,,,,,,,,,,,
46358113.0597917,0.0619964600,-0.1372833252,-1.0266723633,,,,,,,,,,,,,,,,,,,,,,,,
46358154.6249167,,,,,0.6142551759,0.2470220395,-0.4539035836,,,,,,,,,,,,,,,,,,,,
46358.1545473333,,,,,,,,,,,-82.7417755127,-134.2031250000,250.1343994141,,,,,,,,,,,,,,
46358218.116125,0.1982574463,-0.2930908203,-0.8762817383,,,,,,,,,,,,,,,,,,,,,,,,
46358255.7446667,,,,,-0.4667397537,-0.3313582260,0.7519858780,,,,,,,,,,,,,,,,,,,,
46358.2556084167,,,,,,,,,,,-85.7689208984,-133.5304260254,251.1153259277,,,,,,,,,,,,,,
1451522752999.89,,,,,,,,,,,,,,52.4904938581586,13.386350672417,191.650299072266,9.60999965667725,37.1011352539062,10.0,3.0,,,,,,,
46358322.665375,-0.2597961426,-0.3824768066,-1.0264892578,,,,,,,,,,,,,,,,,,,,,,,,
46358356.816875,,,,,-0.2148092419,0.3086004492,-0.8164175985,,,,,,,,,,,,,,,,,,,,
46358.35665375,,,,,,,,,,,-84.7598724365,-132.8577270508,251.4422912598,,,,,,,,,,,,,,
46358427.894125,0.1834869385,-0.1843414307,-1.0236663818,,,,,,,,,,,,,,,,,,,,,,,,
46358457.76825,,,,,-0.3760817554,0.3120383239,-0.2753175935,,,,,,,,,,,,,,,,,,,,
46358.4576955833,,,,,,,,,,,-86.2734375000,-130.3351135254,253.2406463623,,,,,,,,,,,,,,
46358533.1297083,0.0975189209,-0.2417297363,-1.1036071777,,,,,,,,,,,,,,,,,,,,,,,,
46358558.9181667,,,,,-0.5234307301,0.4724421142,-0.4693605705,,,,,,,,,,,,,,,,,,,,
46358.5587404583,,,,,,,,,,,-84.9280395508,-130.3351135254,251.9327545166,,,,,,,,,,,,,,
46358638.3510417,0.1305389404,-0.1268157959,-0.9559783936,,,,,,,,,,,,,,,,,,,,,,,,
46358659.751625,,,,,0.1908969848,0.0868422210,-0.1027578043,,,,,,,,,,,,,,,,,,,,
46358.6595700833,,,,,,,,,,,-83.2462921143,-129.9987640381,252.5867004395,,,,,,,,,,,,,,
46358742.1365417,0.0495758057,-0.1481628418,-0.9828643799,,,,,,,,,,,,,,,,,,,,,,,,
46358760.8345417,,,,,-0.1624565549,0.0968762131,0.1712207518,,,,,,,,,,,,,,,,,,,,
46358.7606340833,,,,,,,,,,,-84.5916900635,-129.9987640381,253.2406463623,,,,,,,,,,,,,,
46358846.579625,0.1061859131,-0.2122802734,-1.1419067383,,,,,,,,,,,,,,,,,,,,,,,,
46358861.8070833,,,,,0.0133464318,0.2298164210,-0.1500723232,,,,,,,,,,,,,,,,,,,,
46358.8617463333,,,,,,,,,,,-83.2462921143,-130.3351135254,252.9136657715,,,,,,,,,,,,,,
46358951.8045,0.1832275391,-0.1301727295,-0.8962860107,,,,,,,,,,,,,,,,,,,,,,,,
46358962.7107083,,,,,-0.0174948378,1.0596142735,0.3587160809,,,,,,,,,,,,,,,,,,,,
46358.9625064583,,,,,,,,,,,-83.0781250000,-129.4942321777,252.4232177734,,,,,,,,,,,,,,
46359056.8135417,0.2010345459,-0.2472534180,-0.8964996338,,,,,,,,,,,,,,,,,,,,,,,,
46359063.6689583,,,,,0.5444470659,-0.3036136801,0.4905859644,,,,,,,,,,,,,,,,,,,,
46359.0635499167,,,,,,,,,,,-83.2462921143,-131.0078125000,252.5867004395,,,,,,,,,,,,,,
46359162.0874167,0.0142822266,-0.1598358154,-1.0181121826,,,,,,,,,,,,,,,,,,,,,,,,
46359164.7248333,,,,,-0.1563651066,0.0258883226,-0.3358778767,,,,,,,,,,,,,,,,,,,,
46359.1646180833,,,,,,,,,,,-85.0962219238,-130.8396301270,253.7311096191,,,,,,,,,,,,,,
46359265.765875,,,,,0.0020532972,0.1465055516,-0.1382239195,,,,,,,,,,,,,,,,,,,,
46359266.84375,0.1990509033,-0.1668548584,-1.0183258057,,,,,,,,,,,,,,,,,,,,,,,,
46359.265670875,,,,,,,,,,,-83.9189910889,-130.3351135254,253.2406463623,,,,,,,,,,,,,,
1451522753999.89,,,,,,,,,,,,,,52.4904527058978,13.3863367375051,191.650299072266,8.63000011444092,37.2293090820312,10.0,3.0,,,,,,,
46359366.9080417,,,,,-0.0999756000,0.1024882924,-0.1789931874,,,,,,,,,,,,,,,,,,,,
46359372.062,0.1926574707,-0.2232513428,-1.0294952393,,,,,,,,,,,,,,,,,,,,,,,,
46359.366709875,,,,,,,,,,,-83.5826416016,-131.0078125000,253.5676116943,,,,,,,,,,,,,,
46359467.892125,,,,,-0.1953740249,-0.0812887312,-0.0650407854,,,,,,,,,,,,,,,,,,,,
46359.4678054583,,,,,,,,,,,-85.0962219238,-129.1578826904,255.0390014648,,,,,,,,,,,,,,
46359477.3835833,0.1450347900,-0.1752777100,-1.0446014404,,,,,,,,,,,,,,,,,,,,,,,,
46359568.9512917,,,,,0.1720599138,-0.0763717369,0.1998414777,,,,,,,,,,,,,,,,,,,,
46359.5688612083,,,,,,,,,,,-83.5826416016,-130.6714630127,253.2406463623,,,,,,,,,,,,,,
46359582.865125,0.0035552979,-0.3411102295,-0.9776306152,,,,,,,,,,,,,,,,,,,,,,,,
46359670.0752917,,,,,0.0390209026,0.2127596732,-0.1856921028,,,,,,,,,,,,,,,,,,,,
46359.6700188333,,,,,,,,,,,-84.0871734619,-129.1578826904,250.7883453369,,,,,,,,,,,,,,
46359688.4579167,0.1603240967,-0.2172851562,-0.8907775879,,,,,,,,,,,,,,,,,,,,,,,,
46359771.24725,,,,,-0.1452583932,-0.0822967377,0.1131198978,,,,,,,,,,,,,,,,,,,,
46359.7710567917,,,,,,,,,,,-86.4416046143,-131.5123291016,252.4232177734,,,,,,,,,,,,,,
46359793.7467917,0.0702514648,-0.3016662598,-1.1060943604,,,,,,,,,,,,,,,,,,,,,,,,
46359872.1825833,,,,,0.2002377560,0.0521148667,-0.0271903421,,,,,,,,,,,,,,,,,,,,
46359.8720978333,,,,,,,,,,,-86.2734375000,-131.6805114746,253.8945922852,,,,,,,,,,,,,,
46359898.9939583,0.1451416016,-0.2660675049,-0.8687133789,,,,,,,,,,,,,,,,,,,,,,,,
46359973.2087083,,,,,0.0496125606,0.1095571209,-0.0723439721,,,,,,,,,,,,,,,,,,,,
46359.9731392083,,,,,,,,,,,-84.9280395508,-129.3260650635,250.9518280029,,,,,,,,,,,,,,
46360004.1847917,0.1527099609,-0.2849884033,-0.9304656982,,,,,,,,,,,,,,,,,,,,,,,,
46360074.3745,,,,,0.0813361355,0.0551577946,0.0503537183,,,,,,,,,,,,,,,,,,,,
46360.0741782083,,,,,,,,,,,-84.2553405762,-129.9987640381,252.9136657715,,,,,,,,,,,,,,
46360109.4324583,0.0697021484,-0.3112182617,-0.9517059326,,,,,,,,,,,,,,,,,,,,,,,,
46360175.2942083,,,,,-0.0187643667,0.0502770193,-0.0707761691,,,,,,,,,,,,,,,,,,,,
46360.1752279167,,,,,,,,,,,-85.4325714111,-129.4942321777,253.4041290283,,,,,,,,,,,,,,
46360214.6355,0.1605529785,-0.2717895508,-1.0606231689,,,,,,,,,,,,,,,,,,,,,,,,
46360276.352,,,,,0.2254190094,0.0157001336,0.0624631118,,,,,,,,,,,,,,,,,,,,
46360.2762719583,,,,,,,,,,,-84.2553405762,-129.3260650635,253.5676116943,,,,,,,,,,,,,,
1451522754999.89,,,,,,,,,,,,,,52.4903783461839,13.3863115574178,191.650299072266,7.76999998092651,37.29052734375,10.0,3.0,,,,,,,
46360319.7830833,0.0744018555,-0.3462677002,-0.9205169678,,,,,,,,,,,,,,,,,,,,,,,,
46360377.375,,,,,-0.0483510212,0.0429772947,-0.0942378194,,,,,,,,,,,,,,,,,,,,
46360.37730975,,,,,,,,,,,-85.0962219238,-129.1578826904,253.4041290283,,,,,,,,,,,,,,
46360424.9807083,0.1412048340,-0.2668609619,-0.9738159180,,,,,,,,,,,,,,,,,,,,,,,,
46360478.4279583,,,,,0.1154602838,-0.0967941877,0.1209884736,,,,,,,,,,,,,,,,,,,,
46360.478359125,,,,,,,,,,,-80.8918609619,-128.6533660889,253.8945922852,,,,,,,,,,,,,,
46360530.3274167,0.0541992188,-0.3071289062,-0.9237365723,,,,,,,,,,,,,,,,,,,,,,,,
46360579.47475,,,,,-0.1689634564,0.1090756214,0.1145353679,,,,,,,,,,,,,,,,,,,,
46360.5794014167,,,,,,,,,,,-82.9099578857,-129.6624145508,253.2406463623,,,,,,,,,,,,,,
46360635.5333333,-0.0203094482,-0.2567443848,-0.9320373535,,,,,,,,,,,,,,,,,,,,,,,,
46360680.5068333,,,,,-0.0708427482,0.0892880682,-0.0385311473,,,,,,,,,,,,,,,,,,,,
46360.6804404583,,,,,,,,,,,-82.9099578857,-129.6624145508,251.2788085938,,,,,,,,,,,,,,
46360740.7469583,0.0440063477,-0.3503417969,-0.9877471924,,,,,,,,,,,,,,,,,,,,,,,,
46360781.5512083,,,,,0.0096856506,-0.0415375898,0.0141038348,,,,,,,,,,,,,,,,,,,,
46360.7814873333,,,,,,,,,,,-82.2372589111,-128.9897155762,253.5676116943,,,,,,,,,,,,,,
46360845.9478333,0.0515441895,-0.2677307129,-0.9574890137,,,,,,,,,,,,,,,,,,,,,,,,
46360882.5875417,,,,,0.1752493155,-0.0581413340,0.0450039603,,,,,,,,,,,,,,,,,,,,
46360.882524375,,,,,,,,,,,-80.7236785889,-130.8396301270,253.0771636963,,,,,,,,,,,,,,
46360951.168875,-0.0537261963,-0.2810668945,-1.0508422852,,,,,,,,,,,,,,,,,,,,,,,,
46360982.81275,,,,,0.1152946352,0.0040613207,-0.0633366286,,,,,,,,,,,,,,,,,,,,
46360.9827457917,,,,,,,,,,,-80.5555114746,-131.6805114746,252.9136657715,,,,,,,,,,,,,,
46361056.3738333,0.0265655518,-0.3065338135,-0.9494323730,,,,,,,,,,,,,,,,,,,,,,,,
46361083.860375,,,,,-0.1434674174,0.1313740029,-0.3134505982,,,,,,,,,,,,,,,,,,,,
46361.083787875,,,,,,,,,,,-80.3873291016,-132.1850280762,253.4041290283,,,,,,,,,,,,,,
46361161.6037917,0.0401458740,-0.3173065186,-0.9335327148,,,,,,,,,,,,,,,,,,,,,,,,
46361184.9134167,,,,,0.0837034194,-0.0018072211,-0.1328792215,,,,,,,,,,,,,,,,,,,,
46361.1848398333,,,,,,,,,,,-80.2191619873,-131.6805114746,253.5676116943,,,,,,,,,,,,,,
46361266.8288333,0.0418243408,-0.3015441895,-0.9216156006,,,,,,,,,,,,,,,,,,,,,,,,
46361285.46825,,,,,0.0716342396,0.0682573514,-0.1954129071,,,,,,,,,,,,,,,,,,,,
46361.2853897083,,,,,,,,,,,-81.0600280762,-132.5213775635,254.3850555420,,,,,,,,,,,,,,
1451522755999.89,,,,,,,,,,,,,,52.490344984431,13.3863005100465,190.478591918945,6.32999992370605,37.3688354492188,10.0,3.0,,,,,,,
46361372.024,0.0958862305,-0.2989349365,-0.9781341553,,,,,,,,,,,,,,,,,,,,,,,,
46361386.499,,,,,0.0766479067,0.0043494747,-0.1493801677,,,,,,,,,,,,,,,,,,,,
46361.3864286667,,,,,,,,,,,-80.0509796143,-134.8758239746,253.7311096191,,,,,,,,,,,,,,
46361477.2227083,0.0755615234,-0.3049926758,-0.8762207031,,,,,,,,,,,,,,,,,,,,,,,,
46361487.6571667,,,,,0.1611308333,-0.1195045602,-0.1014930691,,,,,,,,,,,,,,,,,,,,
46361.4874673333,,,,,,,,,,,-80.5555114746,-133.3622436523,253.8945922852,,,,,,,,,,,,,,
46361582.179125,0.0004272461,-0.2970581055,-1.0808868408,,,,,,,,,,,,,,,,,,,,,,,,
46361588.59825,,,,,-0.0141919854,0.1532316312,-0.2267639058,,,,,,,,,,,,,,,,,,,,
46361.5885125833,,,,,,,,,,,-81.7327270508,-133.8667755127,254.0580749512,,,,,,,,,,,,,,
46361686.896625,0.0720672607,-0.2934722900,-0.9444885254,,,,,,,,,,,,,,,,,,,,,,,,
46361689.6316667,,,,,0.1182049376,0.1550084923,-0.1448333527,,,,,,,,,,,,,,,,,,,,
46361.6895564583,,,,,,,,,,,-82.0690765381,-134.5394744873,254.0580749512,,,,,,,,,,,,,,
46361790.7100417,,,,,0.1464341789,-0.1184675253,0.0286036817,,,,,,,,,,,,,,,,,,,,
46361791.6446667,0.0634613037,-0.4633331299,-0.9125061035,,,,,,,,,,,,,,,,,,,,,,,,
46361.7906130417,,,,,,,,,,,-82.9099578857,-133.0258941650,253.5676116943,,,,,,,,,,,,,,
46361891.768375,,,,,0.4222338045,-0.3293126520,0.1544771917,,,,,,,,,,,,,,,,,,,,
46361896.846375,0.0039978027,-0.4534606934,-0.7750244141,,,,,,,,,,,,,,,,,,,,,,,,
46361.8916715,,,,,,,,,,,-81.7327270508,-133.8667755127,254.0580749512,,,,,,,,,,,,,,
46361992.1037917,,,,,0.3453906881,-0.6116146517,0.0614407242,,,,,,,,,,,,,,,,,,,,
46361.99201675,,,,,,,,,,,-82.2372589111,-135.3803405762,253.5676116943,,,,,,,,,,,,,,
46362002.059,-0.2566375732,-0.5458984375,-0.9367675781,,,,,,,,,,,,,,,,,,,,,,,,
46362093.1144583,,,,,0.0191204314,0.6935297584,-0.4394503420,,,,,,,,,,,,,,,,,,,,
46362.0930532917,,,,,,,,,,,-81.2282104492,-133.3622436523,252.2597198486,,,,,,,,,,,,,,
46362107.531875,-0.0638122559,-0.5770568848,-0.8353118896,,,,,,,,,,,,,,,,,,,,,,,,
46362194.1851667,,,,,-0.1802925437,0.2015032902,-0.2269167712,,,,,,,,,,,,,,,,,,,,
46362.194105625,,,,,,,,,,,-81.5645599365,-135.0439910889,253.5676116943,,,,,,,,,,,,,,
46362212.75375,-0.0535736084,-0.6063385010,-0.8126220703,,,,,,,,,,,,,,,,,,,,,,,,
46362295.18375,,,,,-0.2280326357,0.1310504288,-0.5020399539,,,,,,,,,,,,,,,,,,,,
46362.2951304167,,,,,,,,,,,-81.0600280762,-134.2031250000,253.4041290283,,,,,,,,,,,,,,
46362317.434625,0.0099639893,-0.5648345947,-0.8777313232,,,,,,,,,,,,,,,,,,,,,,,,
1451522756999.89,,,,,,,,,,,,,,52.4903368150189,13.3862980285491,190.478591918945,4.53000020980835,37.6226196289062,10.0,3.0,,,,,,,
46362396.2435417,,,,,-0.3266489582,0.0328476952,-0.8324165388,,,,,,,,,,,,,,,,,,,,
46362.3961709167,,,,,,,,,,,-80.5555114746,-131.0078125000,253.2406463623,,,,,,,,,,,,,,
46362422.6183333,0.0133209229,-0.5272827148,-0.9755249023,,,,,,,,,,,,,,,,,,,,,,,,
46362497.402625,,,,,0.4909779817,0.2370836550,-1.1646557384,,,,,,,,,,,,,,,,,,,,
46362.4972095,,,,,,,,,,,-79.3782958984,-129.4942321777,252.0962371826,,,,,,,,,,,,,,
46362527.8130417,0.2610015869,-0.4157714844,-0.7582550049,,,,,,,,,,,,,,,,,,,,,,,,
46362598.3170417,,,,,-0.1341143957,-0.0930338043,-0.2025158240,,,,,,,,,,,,,,,,,,,,
46362.5982486667,,,,,,,,,,,-78.0328979492,-129.1578826904,252.0962371826,,,,,,,,,,,,,,
46362632.9919167,0.1613311768,-0.4141387939,-0.9179382324,,,,,,,,,,,,,,,,,,,,,,,,
46362699.3539167,,,,,-0.1029857709,0.1307401706,-0.1588690106,,,,,,,,,,,,,,,,,,,,
46362.69928775,,,,,,,,,,,-78.2010650635,-130.6714630127,253.8945922852,,,,,,,,,,,,,,
46362738.2070833,0.2275695801,-0.2857513428,-0.8968048096,,,,,,,,,,,,,,,,,,,,,,,,
46362800.5725833,,,,,-0.3081996435,0.1170312825,0.0042855588,,,,,,,,,,,,,,,,,,,,
46362.8003847083,,,,,,,,,,,-76.3511505127,-129.8305816650,254.0580749512,,,,,,,,,,,,,,
46362842.6152917,0.3161926270,-0.3528289795,-0.9954986572,,,,,,,,,,,,,,,,,,,,,,,,
46362901.4857917,,,,,-0.1537038097,0.1013316816,0.1723515300,,,,,,,,,,,,,,,,,,,,
46362.9014222917,,,,,,,,,,,-76.8556823730,-129.6624145508,254.8755035400,,,,,,,,,,,,,,
46362947.8176667,0.2404174805,-0.3561706543,-0.9734497070,,,,,,,,,,,,,,,,,,,,,,,,
46363002.521125,,,,,0.0778098439,0.0976826183,0.0397583319,,,,,,,,,,,,,,,,,,,,
46363.00245875,,,,,,,,,,,-76.3511505127,-131.1759796143,254.3850555420,,,,,,,,,,,,,,
46363052.95675,0.3255157471,-0.3312683105,-0.9427337646,,,,,,,,,,,,,,,,,,,,,,,,
46363103.637875,,,,,0.1273323896,0.0088163948,0.1209661030,,,,,,,,,,,,,,,,,,,,
46363.1035195833,,,,,,,,,,,-77.1920166016,-131.3441619873,253.8945922852,,,,,,,,,,,,,,
46363157.0315833,0.2456054688,-0.3229827881,-0.9405517578,,,,,,,,,,,,,,,,,,,,,,,,
46363204.6334583,,,,,0.0454891883,0.0421927275,0.2916694026,,,,,,,,,,,,,,,,,,,,
46363.204560375,,,,,,,,,,,-77.0238494873,-130.8396301270,254.0580749512,,,,,,,,,,,,,,
46363262.3054583,0.1335601807,-0.3818511963,-0.8770751953,,,,,,,,,,,,,,,,,,,,,,,,
46363305.6762083,,,,,0.1050100397,0.0882656806,0.1341399620,,,,,,,,,,,,,,,,,,,,
46363.3056094583,,,,,,,,,,,-78.7055969238,-131.1759796143,254.7120208740,,,,,,,,,,,,,,
1451522757999.89,,,,,,,,,,,,,,52.4903560485025,13.3863040068294,191.650299072266,3.9300000667572,37.3052978515625,10.0,3.0,,,,,,,
46363367.5285833,0.2217102051,-0.3607177734,-0.8257446289,,,,,,,,,,,,,,,,,,,,,,,,
46363406.838625,,,,,-0.2156372187,0.1968811078,-0.0127837059,,,,,,,,,,,,,,,,,,,,
46363.4066482083,,,,,,,,,,,-77.1920166016,-131.3441619873,252.9136657715,,,,,,,,,,,,,,
46363472.7518333,0.3155364990,-0.4073791504,-0.9376220703,,,,,,,,,,,,,,,,,,,,,,,,
46363507.7497917,,,,,0.0762036914,0.1834049801,0.1000845232,,,,,,,,,,,,,,,,,,,,
46363.5076860417,,,,,,,,,,,-77.3601989746,-130.5032806396,255.0390014648,,,,,,,,,,,,,,
46363577.9726667,0.2859497070,-0.3593139648,-0.9365692139,,,,,,,,,,,,,,,,,,,,,,,,
46363608.8045833,,,,,-0.1405259560,0.1286256206,0.0340043061,,,,,,,,,,,,,,,,,,,,
46363.6087337917,,,,,,,,,,,-79.2101135254,-130.6714630127,252.9136657715,,,,,,,,,,,,,,
46363682.47125,0.2630920410,-0.3370361328,-0.8421325684,,,,,,,,,,,,,,,,,,,,,,,,
46363709.8398333,,,,,-0.1638097071,0.0382674943,0.1215623848,,,,,,,,,,,,,,,,,,,,
46363.7097728333,,,,,,,,,,,-79.8828125000,-131.6805114746,254.2215576172,,,,,,,,,,,,,,
46363787.6585417,0.1975402832,-0.3156280518,-1.0497894287,,,,,,,,,,,,,,,,,,,,,,,,
46363810.8749167,,,,,0.1325878717,-0.0741256268,0.2119005374,,,,,,,,,,,,,,,,,,,,
46363.81081025,,,,,,,,,,,-78.8737640381,-130.3351135254,254.8755035400,,,,,,,,,,,,,,
46363892.8517083,0.1198272705,-0.3217163086,-0.8578796387,,,,,,,,,,,,,,,,,,,,,,,,
46363911.9220417,,,,,-0.1431704749,0.2005448185,0.0257809972,,,,,,,,,,,,,,,,,,,,
46363.9118572917,,,,,,,,,,,-80.3873291016,-130.5032806396,254.7120208740,,,,,,,,,,,,,,
46363998.0434167,0.3024444580,-0.2904663086,-0.9884033203,,,,,,,,,,,,,,,,,,,,,,,,
46364012.9580833,,,,,0.0158801633,0.3742207385,-0.0755608043,,,,,,,,,,,,,,,,,,,,
46364.0128939583,,,,,,,,,,,-79.3782958984,-131.1759796143,255.3659667969,,,,,,,,,,,,,,
46364103.2530833,0.3169097900,-0.3295440674,-0.9683532715,,,,,,,,,,,,,,,,,,,,,,,,
46364113.7390833,,,,,0.0306647021,0.2885375251,0.0424973931,,,,,,,,,,,,,,,,,,,,
46364.11366925,,,,,,,,,,,-77.3601989746,-129.4942321777,255.6929473877,,,,,,,,,,,,,,
46364208.3978333,0.2645721436,-0.3389129639,-0.8018035889,,,,,,,,,,,,,,,,,,,,,,,,
46364214.7795417,,,,,0.2699870103,0.1009870685,0.1934224605,,,,,,,,,,,,,,,,,,,,
46364.21471,,,,,,,,,,,-78.0328979492,-130.5032806396,255.6929473877,,,,,,,,,,,,,,
46364313.417625,0.3212280273,-0.3128204346,-0.9687652588,,,,,,,,,,,,,,,,,,,,,,,,
46364315.64725,,,,,-0.1323322082,-0.0423503866,0.0456926538,,,,,,,,,,,,,,,,,,,,
1451522758999.89,,,,,,,,,,,,,,52.4903396615294,13.3862988932563,190.478591918945,3.67000007629395,37.388427734375,10.0,3.0,,,,,,,
46364.3155882083,,,,,,,,,,,-79.0419464111,-131.1759796143,256.3468933105,,,,,,,,,,,,,,
46364416.7012917,,,,,0.0272675738,0.0219401863,0.1936738629,,,,,,,,,,,,,,,,,,,,
46364418.6407083,0.1792755127,-0.3715057373,-0.9430847168,,,,,,,,,,,,,,,,,,,,,,,,
46364.4166357083,,,,,,,,,,,-79.7146453857,-130.5032806396,254.7120208740,,,,,,,,,,,,,,
46364517.7497917,,,,,-0.2045097327,0.0515681198,0.0343555770,,,,,,,,,,,,,,,,,,,,
46364523.8524583,0.1864624023,-0.2805938721,-0.9794616699,,,,,,,,,,,,,,,,,,,,,,,,
46364.5176770833,,,,,,,,,,,-80.3873291016,-131.1759796143,255.3659667969,,,,,,,,,,,,,,
46364618.79575,,,,,-0.0415756730,0.2780116473,-0.0445288524,,,,,,,,,,,,,,,,,,,,
46364.6187212083,,,,,,,,,,,-79.2101135254,-129.9987640381,254.8755035400,,,,,,,,,,,,,,
46364629.144875,0.3039398193,-0.2928466797,-0.9428710938,,,,,,,,,,,,,,,,,,,,,,,,
46364719.8363333,,,,,-0.1283169603,0.1433145520,0.0965771401,,,,,,,,,,,,,,,,,,,,
46364.719769875,,,,,,,,,,,-79.2101135254,-130.6714630127,256.5103759766,,,,,,,,,,,,,,
46364734.1107083,0.2403564453,-0.3175659180,-1.0000915527,,,,,,,,,,,,,,,,,,,,,,,,
46364820.8725,,,,,-0.0918582850,0.1107291781,0.0419740819,,,,,,,,,,,,,,,,,,,,
46364.8208086667,,,,,,,,,,,-79.3782958984,-131.1759796143,257.9817504883,,,,,,,,,,,,,,
46364839.2946667,0.2427062988,-0.3144836426,-0.9191894531,,,,,,,,,,,,,,,,,,,,,,,,
46364921.9095417,,,,,-0.1767761058,0.1792829393,-0.0094816524,,,,,,,,,,,,,,,,,,,,
46364.9218458333,,,,,,,,,,,-80.2191619873,-128.9897155762,255.5294494629,,,,,,,,,,,,,,
46364944.530875,0.2938079834,-0.3169250488,-0.9721679688,,,,,,,,,,,,,,,,,,,,,,,,
46365023.0795833,,,,,-0.1270777914,0.1728660527,0.0599453593,,,,,,,,,,,,,,,,,,,,
46365.0228925417,,,,,,,,,,,-79.7146453857,-130.5032806396,257.9817504883,,,,,,,,,,,,,,
46365048.8035,0.2402038574,-0.3034820557,-0.9879302979,,,,,,,,,,,,,,,,,,,,,,,,
46365124.0035417,,,,,-0.0983966117,0.1368382768,0.0361164591,,,,,,,,,,,,,,,,,,,,
46365.123932125,,,,,,,,,,,-81.3963775635,-129.4942321777,257.6547851562,,,,,,,,,,,,,,
46365153.5865417,0.2575683594,-0.3049011230,-1.0206298828,,,,,,,,,,,,,,,,,,,,,,,,
46365225.044625,,,,,0.0394427473,0.0667737043,0.0896153707,,,,,,,,,,,,,,,,,,,,
46365.224972,,,,,,,,,,,-80.2191619873,-131.3441619873,258.4722290039,,,,,,,,,,,,,,
46365258.825125,0.1888580322,-0.3408966064,-0.8869476318,,,,,,,,,,,,,,,,,,,,,,,,
46365326.0797917,,,,,-0.0488056228,0.1002070287,0.0145248806,,,,,,,,,,,,,,,,,,,,
46365.3260120417,,,,,,,,,,,-81.0600280762,-128.8215484619,257.6547851562,,,,,,,,,,,,,,
46365363.725375,0.2585296631,-0.3631286621,-0.8911132812,,,,,,,,,,,,,,,,,,,,,,,,
46365427.1505417,,,,,-0.2488417775,0.0029382656,0.1386071484,,,,,,,,,,,,,,,,,,,,
46365.4270109583,,,,,,,,,,,-82.7417755127,-129.8305816650,257.9817504883,,,,,,,,,,,,,,
46365469.080375,0.3180847168,-0.4172973633,-0.9772796631,,,,,,,,,,,,,,,,,,,,,,,,
1451522759999.89,,,,,,,,,,,,,,52.4903289442525,13.3862956380659,190.478591918945,3.32999992370605,37.4033813476562,10.0,3.0,,,,,,,
46365528.1269583,,,,,0.3602993302,-0.0545047875,0.4433617267,,,,,,,,,,,,,,,,,,,,
46365.528051125,,,,,,,,,,,-81.0600280762,-129.4942321777,257.0008544922,,,,,,,,,,,,,,
46365574.5141667,0.0395202637,-0.4574890137,-0.7123260498,,,,,,,,,,,,,,,,,,,,,,,,
46365629.1720417,,,,,-0.2791504149,-0.0580523844,0.0123000758,,,,,,,,,,,,,,,,,,,,
46365.6290997917,,,,,,,,,,,-81.5645599365,-129.3260650635,256.1834106445,,,,,,,,,,,,,,
46365679.7207917,0.2353210449,-0.5038604736,-1.0919799805,,,,,,,,,,,,,,,,,,,,,,,,
46365730.2030417,,,,,0.2289282568,-0.0424912678,0.1581470276,,,,,,,,,,,,,,,,,,,,
46365.7301377917,,,,,,,,,,,-82.9099578857,-126.6352691650,256.1834106445,,,,,,,,,,,,,,
46365784.5711667,0.1126708984,-0.4758453369,-0.8654327393,,,,,,,,,,,,,,,,,,,,,,,,
46365831.2417083,,,,,-0.1398529752,0.1469018299,-0.1149082105,,,,,,,,,,,,,,,,,,,,
46365.83117575,,,,,,,,,,,-83.5826416016,-126.9716186523,256.1834106445,,,,,,,,,,,,,,
46365889.773875,0.3028717041,-0.4516296387,-0.9717559814,,,,,,,,,,,,,,,,,,,,,,,,
46365932.052625,,,,,0.1619167322,0.0525537557,0.1243230176,,,,,,,,,,,,,,,,,,,,
46365.9320174167,,,,,,,,,,,-81.9009094238,-127.3079681396,254.8755035400,,,,,,,,,,,,,,
46365994.9719583,0.1390228271,-0.4052124023,-0.9193878174,,,,,,,,,,,,,,,,,,,,,,,,
46366033.1174167,,,,,0.0689689480,0.0723029594,-0.0228395358,,,,,,,,,,,,,,,,,,,,
46366.033054375,,,,,,,,,,,-81.2282104492,-129.3260650635,255.2024841309,,,,,,,,,,,,,,
46366100.2284167,0.1232604980,-0.2859191895,-0.8648529053,,,,,,,,,,,,,,,,,,,,,,,,
46366134.1607083,,,,,-0.3444287543,0.0725631502,-0.0924303320,,,,,,,,,,,,,,,,,,,,
46366.1340933333,,,,,,,,,,,-81.5645599365,-127.9806671143,254.8755035400,,,,,,,,,,,,,,
46366205.5030417,0.3022003174,-0.3705139160,-0.8888702393,,,,,,,,,,,,,,,,,,,,,,,,
46366235.3296667,,,,,0.6300085727,-0.1967056055,0.2490132851,,,,,,,,,,,,,,,,,,,,
46366.2352549583,,,,,,,,,,,-81.7327270508,-130.1669311523,253.7311096191,,,,,,,,,,,,,,
46366310.8115833,0.0903778076,-0.2799835205,-1.0010833740,,,,,,,,,,,,,,,,,,,,,,,,
46366336.3850417,,,,,-0.6095269998,0.2927857997,-0.2798217978,,,,,,,,,,,,,,,,,,,,
46366.33629475,,,,,,,,,,,-83.0781250000,-128.4851989746,254.3850555420,,,,,,,,,,,,,,
1451522760999.89,,,,,,,,,,,,,,52.4902839967532,13.3862819850618,190.478591918945,3.0699999332428,37.578125,10.0,3.0,,,,,,,
46366416.04475,0.2228240967,-0.4152679443,-0.8444671631,,,,,,,,,,,,,,,,,,,,,,,,
46366437.18625,,,,,0.1378252443,-0.0236597894,0.2130747251,,,,,,,,,,,,,,,,,,,,
46366.437155125,,,,,,,,,,,-82.2372589111,-128.9897155762,252.9136657715,,,,,,,,,,,,,,
46366521.28475,0.1810913086,-0.3475952148,-0.9486694336,,,,,,,,,,,,,,,,,,,,,,,,
46366538.255125,,,,,-0.2797642736,0.2177842592,-0.3456767116,,,,,,,,,,,,,,,,,,,,
46366.538191125,,,,,,,,,,,-81.9009094238,-128.6533660889,253.8945922852,,,,,,,,,,,,,,
46366626.4545833,0.2410736084,-0.3686828613,-0.9497680664,,,,,,,,,,,,,,,,,,,,,,,,
46366639.3169583,,,,,-0.0105634285,-0.0238166496,0.1336051993,,,,,,,,,,,,,,,,,,,,
46366.6392357083,,,,,,,,,,,-81.3963775635,-130.8396301270,252.4232177734,,,,,,,,,,,,,,
46366731.710875,0.1311340332,-0.3535308838,-0.8041381836,,,,,,,,,,,,,,,,,,,,,,,,
46366740.3476667,,,,,0.0847516396,-0.0425245573,0.0219218105,,,,,,,,,,,,,,,,,,,,
46366.7402779167,,,,,,,,,,,-81.3963775635,-130.1669311523,253.0771636963,,,,,,,,,,,,,,
46366836.9155,0.1974029541,-0.3277740479,-1.0657501221,,,,,,,,,,,,,,,,,,,,,,,,
46366841.3818333,,,,,-0.0459358004,0.0481116030,0.0653041720,,,,,,,,,,,,,,,,,,,,
46366.8413160833,,,,,,,,,,,-82.5736083984,-130.3351135254,252.9136657715,,,,,,,,,,,,,,
46366942.103,0.1742706299,-0.3380737305,-0.8530578613,,,,,,,,,,,,,,,,,,,,,,,,
46366942.195,,,,,0.0765829256,0.0414499718,-0.0158093232,,,,,,,,,,,,,,,,,,,,
46366.9421664583,,,,,,,,,,,-81.9009094238,-128.9897155762,254.5485382080,,,,,,,,,,,,,,
46367043.2765,,,,,0.1959050593,-0.0095479651,0.1063597297,,,,,,,,,,,,,,,,,,,,
46367047.3069583,0.2067871094,-0.3381500244,-0.8652954102,,,,,,,,,,,,,,,,,,,,,,,,
46367.0432125417,,,,,,,,,,,-80.8918609619,-130.6714630127,253.5676116943,,,,,,,,,,,,,,
46367144.3265833,,,,,0.0209066135,0.0666836895,-0.0414616897,,,,,,,,,,,,,,,,,,,,
46367152.5842917,0.1668243408,-0.3724822998,-0.9398193359,,,,,,,,,,,,,,,,,,,,,,,,
46367.14425325,,,,,,,,,,,-82.9099578857,-132.6895446777,253.2406463623,,,,,,,,,,,,,,
46367245.3735833,,,,,-0.1455875599,0.1437808715,-0.1727877557,,,,,,,,,,,,,,,,,,,,
46367.245297375,,,,,,,,,,,-81.3963775635,-131.8486785889,253.4041290283,,,,,,,,,,,,,,
46367257.8815,0.1650238037,-0.2837066650,-0.9524993896,,,,,,,,,,,,,,,,,,,,,,,,
46367346.4180417,,,,,0.1605547916,0.1575246469,0.0865604586,,,,,,,,,,,,,,,,,,,,
46367.3463447083,,,,,,,,,,,-83.2462921143,-131.0078125000,252.5867004395,,,,,,,,,,,,,,
46367362.1807917,0.2717742920,-0.3808135986,-0.9193725586,,,,,,,,,,,,,,,,,,,,,,,,
1451522761999.89,,,,,,,,,,,,,,52.4902482275184,13.3862711203473,190.478591918945,3.57999992370605,37.5855712890625,10.0,3.0,,,,,,,
46367447.476,,,,,-0.1296655851,0.0557008131,-0.0523731934,,,,,,,,,,,,,,,,,,,,
46367.4473965,,,,,,,,,,,-82.9099578857,-131.0078125000,254.8755035400,,,,,,,,,,,,,,
46367466.98575,0.1342926025,-0.3701934814,-0.9387054443,,,,,,,,,,,,,,,,,,,,,,,,
46367548.6332917,,,,,-0.0883011007,0.0780769589,-0.0537950551,,,,,,,,,,,,,,,,,,,,
46367.54843675,,,,,,,,,,,-83.0781250000,-131.8486785889,256.3468933105,,,,,,,,,,,,,,
46367572.2259583,0.2556762695,-0.3687133789,-0.9518585205,,,,,,,,,,,,,,,,,,,,,,,,
46367649.552,,,,,-0.0249575478,0.1270058861,-0.0789755095,,,,,,,,,,,,,,,,,,,,
46367.64948,,,,,,,,,,,-83.0781250000,-130.5032806396,255.3659667969,,,,,,,,,,,,,,
46367677.4467083,0.2148132324,-0.3564300537,-0.9711456299,,,,,,,,,,,,,,,,,,,,,,,,
46367750.7106667,,,,,-0.0775549794,0.0810961847,-0.0054016896,,,,,,,,,,,,,,,,,,,,
46367.7505184583,,,,,,,,,,,-84.5916900635,-128.9897155762,256.8373413086,,,,,,,,,,,,,,
46367782.6335833,0.1763153076,-0.3707885742,-0.9179534912,,,,,,,,,,,,,,,,,,,,,,,,
46367851.64225,,,,,-0.0540752196,0.0125983499,-0.1095818883,,,,,,,,,,,,,,,,,,,,
46367.8515622083,,,,,,,,,,,-83.0781250000,-129.1578826904,256.6738586426,,,,,,,,,,,,,,
46367887.6402917,0.1773834229,-0.3098449707,-0.9964599609,,,,,,,,,,,,,,,,,,,,,,,,
46367952.0149583,,,,,0.3966030095,0.0613336652,0.0921765327,,,,,,,,,,,,,,,,,,,,
46367.9519687083,,,,,,,,,,,-81.2282104492,-130.3351135254,255.8564300537,,,,,,,,,,,,,,
46367992.0183333,0.2009887695,-0.3663024902,-0.6538238525,,,,,,,,,,,,,,,,,,,,,,,,
46368053.2085417,,,,,-0.2686477065,0.0109874037,0.0394523347,,,,,,,,,,,,,,,,,,,,
46368.0531196667,,,,,,,,,,,-82.7417755127,-130.1669311523,256.6738586426,,,,,,,,,,,,,,
46368096.5679583,0.1621551514,-0.4081420898,-0.9679565430,,,,,,,,,,,,,,,,,,,,,,,,
46368154.29625,,,,,-0.1737909685,0.1196925794,-0.1336257056,,,,,,,,,,,,,,,,,,,,
46368.1541725,,,,,,,,,,,-81.5645599365,-130.6714630127,255.2024841309,,,,,,,,,,,,,,
46368201.472,0.1834259033,-0.3286895752,-0.9438629150,,,,,,,,,,,,,,,,,,,,,,,,
46368255.2951667,,,,,-0.0997199365,0.1658315790,-0.1281433222,,,,,,,,,,,,,,,,,,,,
46368.2552169583,,,,,,,,,,,-82.7417755127,-131.5123291016,255.6929473877,,,,,,,,,,,,,,
46368306.8465,0.2169952393,-0.3417205811,-1.0092773438,,,,,,,,,,,,,,,,,,,,,,,,
46368356.3220833,,,,,0.0635230499,0.0849764104,0.0776591090,,,,,,,,,,,,,,,,,,,,
46368.3562558333,,,,,,,,,,,-82.9099578857,-131.0078125000,256.1834106445,,,,,,,,,,,,,,
46368412.0457917,0.1243743896,-0.3792266846,-0.8846893311,,,,,,,,,,,,,,,,,,,,,,,,
46368457.4952083,,,,,-0.1423363729,0.1133145749,-0.2271884136,,,,,,,,,,,,,,,,,,,,
46368.4574014583,,,,,,,,,,,-83.0781250000,-129.8305816650,255.0390014648,,,,,,,,,,,,,,
1451522762999.89,,,,,,,,,,,,,,52.4902328374801,13.386266445472,190.478591918945,3.24000000953674,37.5958251953125,10.0,4.0,,,,,,,
46368517.3048333,0.2462310791,-0.3932495117,-0.9244842529,,,,,,,,,,,,,,,,,,,,,,,,
46368558.5244583,,,,,-0.0098462392,0.2729220801,0.1089211581,,,,,,,,,,,,,,,,,,,,
46368.5584502917,,,,,,,,,,,-82.5736083984,-129.3260650635,258.4722290039,,,,,,,,,,,,,,
46368621.7224167,0.0475158691,-0.4980163574,-0.9482727051,,,,,,,,,,,,,,,,,,,,,,,,
46368658.659375,,,,,0.0042320293,0.2234653144,0.0189894038,,,,,,,,,,,,,,,,,,,,
46368.658575625,,,,,,,,,,,-83.5826416016,-129.3260650635,256.5103759766,,,,,,,,,,,,,,
46368726.9717083,0.0801086426,-0.5334472656,-0.8057556152,,,,,,,,,,,,,,,,,,,,,,,,
46368759.691375,,,,,-0.1654163922,0.1582064161,-0.1112026882,,,,,,,,,,,,,,,,,,,,
46368.759618875,,,,,,,,,,,-83.4144744873,-130.1669311523,257.0008544922,,,,,,,,,,,,,,
46368832.251,0.1233825684,-0.4505004883,-0.7777557373,,,,,,,,,,,,,,,,,,,,,,,,
46368860.7192917,,,,,-0.5878608527,0.8285163393,-0.1733310406,,,,,,,,,,,,,,,,,,,,
46368.8606566667,,,,,,,,,,,-82.7417755127,-130.5032806396,255.6929473877,,,,,,,,,,,,,,
46368937.4902083,0.3337860107,-0.2857208252,-0.9745483398,,,,,,,,,,,,,,,,,,,,,,,,
46368961.881375,,,,,-2.6205017768,2.1734286688,-0.0244661946,,,,,,,,,,,,,,,,,,,,
46368.961693375,,,,,,,,,,,-85.9370880127,-129.3260650635,258.7991943359,,,,,,,,,,,,,,
46369042.7025417,0.2681884766,-0.4556274414,-0.6926574707,,,,,,,,,,,,,,,,,,,,,,,,
46369062.858875,,,,,0.7415228508,0.0620676324,-0.1663812554,,,,,,,,,,,,,,,,,,,,
46369.0627429167,,,,,,,,,,,-84.7598724365,-128.8215484619,259.6166381836,,,,,,,,,,,,,,
46369147.116375,0.0820312500,-0.4322967529,-1.1077728271,,,,,,,,,,,,,,,,,,,,,,,,
46369163.8549167,,,,,-1.6646434604,1.6336977949,-1.0032026626,,,,,,,,,,,,,,,,,,,,
46369.1637815417,,,,,,,,,,,-82.4054260254,-125.7944030762,262.2324218750,,,,,,,,,,,,,,
46369252.5010833,0.0343933105,-0.0727691650,-1.5559539795,,,,,,,,,,,,,,,,,,,,,,,,
46369264.891625,,,,,2.9235447414,-0.0640942980,-0.8379697623,,,,,,,,,,,,,,,,,,,,
46369.2648230833,,,,,,,,,,,-75.5102844238,-124.2808380127,260.4340515137,,,,,,,,,,,,,,
46369357.82925,0.8648681641,-0.3645477295,-0.5679168701,,,,,,,,,,,,,,,,,,,,,,,,
46369365.9392083,,,,,-0.1349990978,1.7036427915,-1.0857132521,,,,,,,,,,,,,,,,,,,,
46369.3658645833,,,,,,,,,,,-71.3059234619,-118.0583801270,257.0008544922,,,,,,,,,,,,,,
1451522763999.89,,,,,,,,,,,,,,52.4902055766096,13.3862581650709,190.478591918945,3.13000011444092,37.7402954101562,10.0,3.0,,,,,,,
46369462.8382083,0.0975646973,-0.4875640869,-0.8462982178,,,,,,,,,,,,,,,,,,,,,,,,
46369467.1122917,,,,,1.0514050794,-0.5438220220,-0.6566630868,,,,,,,,,,,,,,,,,,,,
46369.4669030833,,,,,,,,,,,-68.7833099365,-118.5629119873,251.2788085938,,,,,,,,,,,,,,
46369568.113,,,,,0.2106627001,-0.6040286374,-1.6420175101,,,,,,,,,,,,,,,,,,,,
46369568.056125,0.8244018555,-0.3524322510,-0.1924438477,,,,,,,,,,,,,,,,,,,,,,,,
46369.5679610417,,,,,,,,,,,-64.4107818604,-112.8449859619,249.6439361572,,,,,,,,,,,,,,
46369669.0805417,,,,,2.3783969979,-1.5537736674,0.4245193294,,,,,,,,,,,,,,,,,,,,
46369673.322,0.6730346680,-0.4849853516,-0.8173217773,,,,,,,,,,,,,,,,,,,,,,,,
46369.6690055,,,,,,,,,,,-63.4017333984,-114.8630676270,247.3551330566,,,,,,,,,,,,,,
46369770.11225,,,,,0.9267536941,0.2891095721,0.0169768530,,,,,,,,,,,,,,,,,,,,
46369778.526625,-0.0465545654,-0.9335327148,-0.8205871582,,,,,,,,,,,,,,,,,,,,,,,,
46369.77004575,,,,,,,,,,,-64.0744323730,-121.9263916016,249.6439361572,,,,,,,,,,,,,,
