unix_time,acc_x,acc_y,acc_z,lin_acc_x,lin_acc_y,lin_acc_z,gyr_x,gyr_y,gyr_z,rot_x,rot_y,rot_z,mag_x,mag_y,mag_z,lat,lng,bearing,speed,alt,err_lat,err_lng,pressure,station,run,walk,auto,cycling,unknown,
27171408192375,,,,,,,-0.6865413574,0.2318880940,0.3478365352,,,,,,,,,,,,,,,,,,,,
27171458458375,,,,,,,,,,,,,-80.5451660156,127.8380126953,350.5132446289,,,,,,,,,,,,,,
27171484212375,-0.0281372070,-0.5001831055,-0.7492980957,,,,,,,,,,,,,,,,,,,,,,,,,,
27171503838375,,,,,,,-0.3825444485,1.7779063700,1.0948742600,,,,,,,,,,,,,,,,,,,,
27171556847375,,,,,,,,,,,,,-81.9468231201,129.5783538818,351.1906127930,,,,,,,,,,,,,,
27171584257375,0.7816619873,-0.0948181152,-0.6207122803,,,,,,,,,,,,,,,,,,,,,,,,,,
27171599512375,,,,,,,-0.9973383819,3.3644899158,2.2594298636,,,,,,,,,,,,,,,,,,,,
27171655297375,,,,,,,,,,,,,-83.5236816406,131.1446533203,351.0213012695,,,,,,,,,,,,,,
27171684272375,0.0732727051,-0.8295593262,-0.9275360107,,,,,,,,,,,,,,,,,,,,,,,,,,
27171695184375,,,,,,,-0.6349005334,-0.8413951201,2.0977331085,,,,,,,,,,,,,,,,,,,,
27171753717375,,,,,,,,,,,,,-86.8525848389,133.7551727295,353.2227783203,,,,,,,,,,,,,,
27171784285375,-0.2512054443,-0.6834716797,-1.1838989258,,,,,,,,,,,,,,,,,,,,,,,,,,
27171790825375,,,,,,,0.2250805216,-1.1218752513,2.4989769426,,,,,,,,,,,,,,,,,,,,
27171852135375,,,,,,,,,,,,,-87.0278015137,133.9291992188,352.3760375977,,,,,,,,,,,,,,
27171884329375,0.2471160889,-0.1090240479,-0.6601867676,,,,,,,,,,,,,,,,,,,,,,,,,,
27171886498375,,,,,,,-1.1664496438,0.7634523844,1.4245927777,,,,,,,,,,,,,,,,,,,,
27171950546375,,,,,,,,,,,,,-87.9038238525,134.4512939453,352.8840942383,,,,,,,,,,,,,,
27171982172375,,,,,,,-1.2495421340,0.3153342520,0.2385859442,,,,,,,,,,,,,,,,,,,,
27171984366375,-0.5415802002,-0.5552673340,-1.1116180420,,,,,,,,,,,,,,,,,,,,,,,,,,
27172048975375,,,,,,,,,,,,,-88.6046447754,136.8877716064,353.2227783203,,,,,,,,,,,,,,
27172077813375,,,,,,,-0.0845172814,0.6335527075,-0.8204339118,,,,,,,,,,,,,,,,,,,,
27172084379375,-0.3803405762,-0.3437347412,-1.2028656006,,,,,,,,,,,,,,,,,,,,,,,,,,
27172147393375,,,,,,,,,,,,,-87.5534057617,134.7993621826,351.1906127930,,,,,,,,,,,,,,
27172156377708,,,,,,,,,,,,,,,,52.3943535006162,13.132345536736,159.609375,0.0,36.1699829101562,5.0,4.0,,,,,,,
27172173485375,,,,,,,-0.3147150671,-0.5953496617,0.2111383407,,,,,,,,,,,,,,,,,,,,
27172184423375,0.1625366211,-0.2498779297,-1.4476776123,,,,,,,,,,,,,,,,,,,,,,,,,,
27172245812375,,,,,,,,,,,,,-86.1517639160,133.4071044922,355.5936279297,,,,,,,,,,,,,,
27172269158375,,,,,,,1.1774660759,0.6312464100,-1.0648351345,,,,,,,,,,,,,,,,,,,,
27172284469375,-0.2508697510,-0.2538757324,-0.5655212402,,,,,,,,,,,,,,,,,,,,,,,,,,
27172342309375,,,,,,,,,,,,,-85.8013458252,133.0590362549,354.2388610840,,,,,,,,,,,,,,
27172364800375,,,,,,,0.7469455794,-0.7725870270,-0.3049979912,,,,,,,,,,,,,,,,,,,,
27172384483375,0.4490509033,-0.0016326904,-0.3153076172,,,,,,,,,,,,,,,,,,,,,,,,,,
27172440729375,,,,,,,,,,,,,-87.7286224365,132.8849945068,355.7630004883,,,,,,,,,,,,,,
27172460466375,,,,,,,-0.8169278602,0.4120815681,0.3504879784,,,,,,,,,,,,,,,,,,,,
27172484545375,-0.2145538330,-0.2919616699,-1.2681121826,,,,,,,,,,,,,,,,,,,,,,,,,,
27172539147375,,,,,,,,,,,,,-86.1517639160,132.3628997803,355.5936279297,,,,,,,,,,,,,,
27172556116375,,,,,,,1.4044691335,1.8328553728,-0.6725890565,,,,,,,,,,,,,,,,,,,,
27172584562375,0.5672912598,0.1784820557,-0.2836303711,,,,,,,,,,,,,,,,,,,,,,,,,,
27172637566375,,,,,,,,,,,,,-87.5534057617,134.7993621826,352.2067260742,,,,,,,,,,,,,,
27172651785375,,,,,,,-0.9721371548,0.4490675493,2.0759034434,,,,,,,,,,,,,,,,,,,,
27172684577375,0.0890808105,-0.2228851318,-1.2266998291,,,,,,,,,,,,,,,,,,,,,,,,,,
27172736016375,,,,,,,,,,,,,-89.6558837891,136.8877716064,353.5614624023,,,,,,,,,,,,,,
27172747452375,,,,,,,-1.0032274300,-0.2158971433,0.9255483473,,,,,,,,,,,,,,,,,,,,
27172784620375,-0.0042266846,-0.2872314453,-0.7571411133,,,,,,,,,,,,,,,,,,,,,,,,,,
27172834436375,,,,,,,,,,,,,-90.8823242188,137.4098815918,351.6986694336,,,,,,,,,,,,,,
27172843102375,,,,,,,-3.9412107656,2.0572093841,1.1000764789,,,,,,,,,,,,,,,,,,,,
27172884665375,0.1405487061,0.0921325684,-1.8253784180,,,,,,,,,,,,,,,,,,,,,,,,,,
27172932855375,,,,,,,,,,,,,-92.6343841553,137.7579498291,346.6182861328,,,,,,,,,,,,,,
27172938776375,,,,,,,1.3570861714,4.8114053097,0.7102490838,,,,,,,,,,,,,,,,,,,,
27172984702375,0.7066955566,-0.0367584229,-0.7062988281,,,,,,,,,,,,,,,,,,,,,,,,,,
27173031273375,,,,,,,,,,,,,-93.8608245850,137.2358398438,347.1263427734,,,,,,,,,,,,,,
27173034447375,,,,,,,0.5195670160,-0.2390666447,-0.5280081714,,,,,,,,,,,,,,,,,,,,
27173091396292,,,,,,,,,,,,,,,,52.3943535006162,13.132345536736,159.609375,0.0,36.4320068359375,5.0,4.0,,,,,,,
27173084730375,0.7977142334,-0.2226104736,-0.6798095703,,,,,,,,,,,,,,,,,,,,,,,,,,
27173129724375,,,,,,,,,,,,,-94.5616607666,135.8435668945,348.1423950195,,,,,,,,,,,,,,
27173130109375,,,,,,,0.1368073841,0.6002765097,0.1854265856,,,,,,,,,,,,,,,,,,,,
27173184759375,1.1010437012,-0.4862213135,-0.7853546143,,,,,,,,,,,,,,,,,,,,,,,,,,
27173225762375,,,,,,,-0.0231119772,-0.0897911393,0.0377146221,,,,,,,,,,,,,,,,,,,,
27173228148375,,,,,,,,,,,,,-97.3649444580,140.3684539795,347.1263427734,,,,,,,,,,,,,,
27173284773375,0.8422851562,-0.6058044434,-0.6916351318,,,,,,,,,,,,,,,,,,,,,,,,,,
27173321434375,,,,,,,0.2209872430,0.0550368871,-0.8076102585,,,,,,,,,,,,,,,,,,,,
27173324944375,,,,,,,,,,,,,-94.5616607666,136.8877716064,347.4650268555,,,,,,,,,,,,,,
27173384818375,0.5758666992,0.0889892578,-0.7582702637,,,,,,,,,,,,,,,,,,,,,,,,,,
27173417078375,,,,,,,1.2752674712,-1.8788548227,-0.7652710571,,,,,,,,,,,,,,,,,,,,
27173423333375,,,,,,,,,,,,,-96.6641235352,135.1474304199,348.4810791016,,,,,,,,,,,,,,
27173484854375,0.3352813721,-0.5357513428,-0.7459259033,,,,,,,,,,,,,,,,,,,,,,,,,,
27173512753375,,,,,,,-0.2701087167,0.2819515278,-0.3472019040,,,,,,,,,,,,,,,,,,,,
27173521753375,,,,,,,,,,,,,-94.5616607666,135.1474304199,348.1423950195,,,,,,,,,,,,,,
27173584863375,0.9479522705,-0.0989227295,-0.9481811523,,,,,,,,,,,,,,,,,,,,,,,,,,
27173608422375,,,,,,,-0.9045503874,-0.3045244812,-1.0071939421,,,,,,,,,,,,,,,,,,,,
27173620183375,,,,,,,,,,,,,-94.9120635986,134.7993621826,348.8197937012,,,,,,,,,,,,,,
27173684913375,0.4216461182,-0.0190582275,-0.9295501709,,,,,,,,,,,,,,,,,,,,,,,,,,
27173704064375,,,,,,,-0.5588521042,-1.9526896324,-0.3569016693,,,,,,,,,,,,,,,,,,,,
27173718624375,,,,,,,,,,,,,-92.9848022461,134.6253356934,352.0373535156,,,,,,,,,,,,,,
27173784927375,0.4356536865,-0.1226196289,-0.8285064697,,,,,,,,,,,,,,,,,,,,,,,,,,
27173799737375,,,,,,,1.5133111957,0.0614804053,-0.9932525602,,,,,,,,,,,,,,,,,,,,
27173817067375,,,,,,,,,,,,,-92.4591827393,133.4071044922,351.1906127930,,,,,,,,,,,,,,
27173884958375,0.5905761719,-0.5875701904,-1.0881652832,,,,,,,,,,,,,,,,,,,,,,,,,,
27173895408375,,,,,,,2.0413910062,0.0893357388,1.3104001586,,,,,,,,,,,,,,,,,,,,
27173915361375,,,,,,,,,,,,,-94.9120635986,133.7551727295,348.1423950195,,,,,,,,,,,,,,
27173966022375,,,,,,,,,,,,,,,,,,,,,,,,0,0,1,0,0,0
27173990926375,,,,,,,-0.4854236930,-3.2177284344,1.3104536881,,,,,,,,,,,,,,,,,,,,
27173984882375,0.3833618164,-0.7509918213,-0.9718627930,,,,,,,,,,,,,,,,,,,,,,,,,,
27174013784375,,,,,,,,,,,,,-92.8096008301,137.9319763184,351.5293273926,,,,,,,,,,,,,,
27174048731708,,,,,,,,,,,,,,,,52.3943535006162,13.132345536736,159.609375,0.0,36.1583862304688,5.0,6.0,,,,,,,
27174086599375,,,,,,,0.7543291935,-0.8020802045,-3.3295015717,,,,,,,,,,,,,,,,,,,,
27174084925375,0.2529296875,-0.1979827881,-0.9169158936,,,,,,,,,,,,,,,,,,,,,,,,,,
27174112203375,,,,,,,,,,,,,-92.4591827393,133.4071044922,353.2227783203,,,,,,,,,,,,,,
27174182271375,,,,,,,0.2361707234,0.7555188275,-0.6008317788,,,,,,,,,,,,,,,,,,,,
27174184971375,0.1744995117,-0.0712280273,-0.9503936768,,,,,,,,,,,,,,,,,,,,,,,,,,
27174210622375,,,,,,,,,,,,,-91.5831451416,131.4927215576,355.0856018066,,,,,,,,,,,,,,
27174277928375,,,,,,,0.4265060475,-1.6409360004,2.1624929304,,,,,,,,,,,,,,,,,,,,
27174285015375,-0.0752868652,-0.5109710693,-1.0096893311,,,,,,,,,,,,,,,,,,,,,,,,,,
27174307119375,,,,,,,,,,,,,-90.1815032959,134.2772674561,356.1016845703,,,,,,,,,,,,,,
27174373586375,,,,,,,0.3142077349,-0.5198610290,-0.3730553392,,,,,,,,,,,,,,,,,,,,
27174385029375,0.0240173340,-0.4922790527,-0.9865570068,,,,,,,,,,,,,,,,,,,,,,,,,,
27174405532375,,,,,,,,,,,,,-88.7798614502,132.5369262695,357.1177368164,,,,,,,,,,,,,,
27174469260375,,,,,,,0.2595399619,-0.5275895225,-0.4719145420,,,,,,,,,,,,,,,,,,,,
27174485065375,0.0335540771,-0.4917449951,-0.8649291992,,,,,,,,,,,,,,,,,,,,,,,,,,
27174503958375,,,,,,,,,,,,,-90.1815032959,131.8407897949,357.1177368164,,,,,,,,,,,,,,
27174564902375,,,,,,,-0.0613208820,-0.2697822132,-0.6606522358,,,,,,,,,,,,,,,,,,,,
27174585078375,-0.0330352783,-0.4133300781,-0.8428955078,,,,,,,,,,,,,,,,,,,,,,,,,,
27174602376375,,,,,,,,,,,,,-87.0278015137,131.1446533203,359.1499023438,,,,,,,,,,,,,,
27174660573375,,,,,,,-0.2393412166,-0.5289637136,-1.2321951016,,,,,,,,,,,,,,,,,,,,
27174685122375,0.0950622559,-0.3650665283,-0.7996978760,,,,,,,,,,,,,,,,,,,,,,,,,,
27174700826375,,,,,,,,,,,,,-84.2245025635,128.0120391846,359.1499023438,,,,,,,,,,,,,,
27174756246375,,,,,,,0.2076258975,-0.4042105955,-1.6675188755,,,,,,,,,,,,,,,,,,,,
27174785136375,-0.1336212158,-0.5464477539,-0.8047485352,,,,,,,,,,,,,,,,,,,,,,,,,,
27174799245375,,,,,,,,,,,,,-83.5236816406,127.6639709473,357.7951354980,,,,,,,,,,,,,,
27174851888375,,,,,,,0.2069055125,0.0934916016,-0.3829971858,,,,,,,,,,,,,,,,,,,,
27174885151375,0.1455230713,-0.4865875244,-0.9422912598,,,,,,,,,,,,,,,,,,,,,,,,,,
27174897665375,,,,,,,,,,,,,-81.7716217041,125.9236297607,359.1499023438,,,,,,,,,,,,,,
27174947562375,,,,,,,0.8140543094,-0.3495478826,-0.6009572137,,,,,,,,,,,,,,,,,,,,
27174985186375,0.3181152344,-0.4891357422,-0.7281951904,,,,,,,,,,,,,,,,,,,,,,,,,,
27174996085375,,,,,,,,,,,,,-80.5451660156,127.1418762207,360.6740112305,,,,,,,,,,,,,,
27175035304792,,,,,,,,,,,,,,,,52.3943535006162,13.132345536736,159.609375,0.0,36.2469482421875,5.0,6.0,,,,,,,
27175043203375,,,,,,,0.6916796604,-0.3239389255,0.2767815331,,,,,,,,,,,,,,,,,,,,
27175085200375,-0.1001281738,-0.6160278320,-0.8030395508,,,,,,,,,,,,,,,,,,,,,,,,,,
27175094503375,,,,,,,,,,,,,-81.5964050293,128.1860809326,361.0127258301,,,,,,,,,,,,,,
27175138875375,,,,,,,0.4752307102,0.1261193197,0.1452565290,,,,,,,,,,,,,,,,,,,,
27175185245375,0.1683502197,-0.4965515137,-0.9118347168,,,,,,,,,,,,,,,,,,,,,,,,,,
27175192922375,,,,,,,,,,,,,-81.4212036133,129.4043121338,362.8755493164,,,,,,,,,,,,,,
27175234549375,,,,,,,0.0368933032,0.0388235624,-0.0733711533,,,,,,,,,,,,,,,,,,,,
27175285259375,-0.0181732178,-0.5176696777,-0.7889251709,,,,,,,,,,,,,,,,,,,,,,,,,,
27175289388375,,,,,,,,,,,,,-81.9468231201,128.5341491699,363.3835449219,,,,,,,,,,,,,,
27175330190375,,,,,,,-0.1964368925,-0.0411711389,-0.1319668225,,,,,,,,,,,,,,,,,,,,
27175385273375,0.0469818115,-0.6359252930,-0.7457885742,,,,,,,,,,,,,,,,,,,,,,,,,,
27175387838375,,,,,,,,,,,,,-81.4212036133,128.3601074219,361.1820678711,,,,,,,,,,,,,,
27175425863375,,,,,,,-0.1557158279,0.1689828975,-0.0824176452,,,,,,,,,,,,,,,,,,,,
27175486257375,,,,,,,,,,,,,-81.7716217041,128.0120391846,361.1820678711,,,,,,,,,,,,,,
27175485309375,0.1159362793,-0.5582122803,-0.7993927002,,,,,,,,,,,,,,,,,,,,,,,,,,
27175521536375,,,,,,,-0.0639805810,0.1948568391,-0.0829665227,,,,,,,,,,,,,,,,,,,,
27175584676375,,,,,,,,,,,,,-81.9468231201,128.1860809326,359.6579589844,,,,,,,,,,,,,,
27175585353375,0.0423431396,-0.5628814697,-0.8114013672,,,,,,,,,,,,,,,,,,,,,,,,,,
27175617177375,,,,,,,-0.1252455366,0.2043057346,-0.0779709651,,,,,,,,,,,,,,,,,,,,
27175683095375,,,,,,,,,,,,,-81.5964050293,127.4899444580,358.3031616211,,,,,,,,,,,,,,
27175685367375,0.0921783447,-0.5924072266,-0.7765808105,,,,,,,,,,,,,,,,,,,,,,,,,,
27175712839375,,,,,,,-0.1537373655,0.1583422374,0.0431440086,,,,,,,,,,,,,,,,,,,,
27175781545375,,,,,,,,,,,,,-83.1732635498,127.3159027100,361.8594360352,,,,,,,,,,,,,,
27175785403375,0.0655364990,-0.5454559326,-0.8399200439,,,,,,,,,,,,,,,,,,,,,,,,,,
27175808523375,,,,,,,-0.0274870182,0.1648656504,0.0001704423,,,,,,,,,,,,,,,,,,,,
27175879964375,,,,,,,,,,,,,-81.2460021973,126.4457397461,361.0127258301,,,,,,,,,,,,,,
27175885426375,0.1419372559,-0.5877227783,-0.7989501953,,,,,,,,,,,,,,,,,,,,,,,,,,
27175904165375,,,,,,,-0.1750176205,-0.0177419792,0.0018429075,,,,,,,,,,,,,,,,,,,,
27175978383375,,,,,,,,,,,,,-81.5964050293,129.5783538818,358.9805603027,,,,,,,,,,,,,,
27175985461375,0.1986236572,-0.5275726318,-0.8408813477,,,,,,,,,,,,,,,,,,,,,,,,,,
27175999838375,,,,,,,-0.1026206515,0.0502991235,-0.0958471676,,,,,,,,,,,,,,,,,,,,
27176027865958,,,,,,,,,,,,,,,,52.3943535006162,13.132345536736,159.609375,0.0,36.4288940429688,5.0,6.0,,,,,,,
27176076803375,,,,,,,,,,,,,-81.5964050293,129.2302856445,362.0288085938,,,,,,,,,,,,,,
27176085505375,0.1726989746,-0.4986572266,-0.7818298340,,,,,,,,,,,,,,,,,,,,,,,,,,
27176095510375,,,,,,,-0.1034129420,0.2535089673,-0.3721876813,,,,,,,,,,,,,,,,,,,,
27176175222375,,,,,,,,,,,,,-80.3699645996,127.6639709473,361.1820678711,,,,,,,,,,,,,,
27176185520375,0.0876464844,-0.5781860352,-0.8806762695,,,,,,,,,,,,,,,,,,,,,,,,,,
27176191152375,,,,,,,0.0618961248,-0.2471306965,0.0360719843,,,,,,,,,,,,,,,,,,,,
27176273641375,,,,,,,,,,,,,-79.1435241699,126.7938079834,357.2871093750,,,,,,,,,,,,,,
27176286825375,,,,,,,-0.2653965195,0.1822094870,0.0856493912,,,,,,,,,,,,,,,,,,,,
27176285548375,0.1220703125,-0.4648284912,-0.8507537842,,,,,,,,,,,,,,,,,,,,,,,,,,
27176370138375,,,,,,,,,,,,,-79.3187255859,125.5755615234,361.1820678711,,,,,,,,,,,,,,
27176382497375,,,,,,,-0.1774429613,0.1935931691,0.1241951859,,,,,,,,,,,,,,,,,,,,
27176385579375,0.1701354980,-0.4716644287,-0.8367462158,,,,,,,,,,,,,,,,,,,,,,,,,,
27176443104375,,,,,,,,,,,,,,,,,,,,,,,,0,0,1,0,0,0
27176468557375,,,,,,,,,,,,,-79.6691436768,128.0120391846,359.1499023438,,,,,,,,,,,,,,
27176478139375,,,,,,,-0.1015340818,0.2399374984,0.0845021014,,,,,,,,,,,,,,,,,,,,
27176485614375,0.1436462402,-0.4734954834,-0.8221130371,,,,,,,,,,,,,,,,,,,,,,,,,,
27176566976375,,,,,,,,,,,,,-81.0707855225,127.6639709473,360.8433837891,,,,,,,,,,,,,,
27176573812375,,,,,,,-0.0556475499,0.2719593474,0.2156326914,,,,,,,,,,,,,,,,,,,,
27176585627375,0.2081756592,-0.5055847168,-0.8110504150,,,,,,,,,,,,,,,,,,,,,,,,,,
27176665426375,,,,,,,,,,,,,-82.2972259521,126.7938079834,359.9966430664,,,,,,,,,,,,,,
27176669485375,,,,,,,-0.1084228806,0.1779058187,0.0227087746,,,,,,,,,,,,,,,,,,,,
27176685672375,0.2222747803,-0.4379730225,-0.8842315674,,,,,,,,,,,,,,,,,,,,,,,,,,
27176763845375,,,,,,,,,,,,,-82.2972259521,126.7938079834,358.9805603027,,,,,,,,,,,,,,
27176765127375,,,,,,,0.0304929282,0.0667960749,-0.0273623823,,,,,,,,,,,,,,,,,,,,
27176785687375,0.1106872559,-0.4762725830,-0.8675842285,,,,,,,,,,,,,,,,,,,,,,,,,,
27176860799375,,,,,,,0.0480029460,0.0678866393,-0.1202156242,,,,,,,,,,,,,,,,,,,,
27176862295375,,,,,,,,,,,,,-82.1220245361,128.3601074219,359.4885864258,,,,,,,,,,,,,,
27176885731375,0.1859588623,-0.4724273682,-0.8426818848,,,,,,,,,,,,,,,,,,,,,,,,,,
27176956472375,,,,,,,-0.0184778106,0.0314652483,0.0020871193,,,,,,,,,,,,,,,,,,,,
27176960714375,,,,,,,,,,,,,-82.2972259521,128.1860809326,358.9805603027,,,,,,,,,,,,,,
27176985767375,0.1758270264,-0.4558563232,-0.8503112793,,,,,,,,,,,,,,,,,,,,,,,,,,
27177052115375,,,,,,,0.0158239706,0.0400792428,-0.0106438559,,,,,,,,,,,,,,,,,,,,
27177059134375,,,,,,,,,,,,,-82.6476440430,128.1860809326,358.6418762207,,,,,,,,,,,,,,
27177085781375,0.1501770020,-0.4915924072,-0.8798980713,,,,,,,,,,,,,,,,,,,,,,,,,,
27177135476417,,,,,,,,,,,,,,,,52.3943535006162,13.132345536736,159.609375,0.0,36.433837890625,5.0,6.0,,,,,,,
27177147775375,,,,,,,0.1767603931,0.0029427930,-0.1182640598,,,,,,,,,,,,,,,,,,,,
27177157553375,,,,,,,,,,,,,-80.8955841064,127.1418762207,359.6579589844,,,,,,,,,,,,,,
27177185825375,0.1863708496,-0.4905242920,-0.8819122314,,,,,,,,,,,,,,,,,,,,,,,,,,
27177243429375,,,,,,,0.3421450937,-0.2343954602,-0.2518351706,,,,,,,,,,,,,,,,,,,,
27177256002375,,,,,,,,,,,,,-81.5964050293,128.1860809326,359.3192749023,,,,,,,,,,,,,,
27177285838375,0.1767730713,-0.5157623291,-0.7793121338,,,,,,,,,,,,,,,,,,,,,,,,,,
27177339102375,,,,,,,0.1412149157,-0.0565269257,-0.0583914048,,,,,,,,,,,,,,,,,,,,
27177352469375,,,,,,,,,,,,,-80.5451660156,128.5341491699,360.3353271484,,,,,,,,,,,,,,
27177385853375,0.1463317871,-0.5000457764,-0.8097381592,,,,,,,,,,,,,,,,,,,,,,,,,,
27177434774375,,,,,,,0.0838293869,0.0794194584,0.0940023959,,,,,,,,,,,,,,,,,,,,
27177450887375,,,,,,,,,,,,,-80.0195617676,128.0120391846,360.5046997070,,,,,,,,,,,,,,
27177485889375,0.1076202393,-0.5108947754,-0.8613433838,,,,,,,,,,,,,,,,,,,,,,,,,,
27177530416375,,,,,,,0.0809800708,0.1244255493,0.1560609736,,,,,,,,,,,,,,,,,,,,
27177549276375,,,,,,,,,,,,,-80.3699645996,128.0120391846,360.5046997070,,,,,,,,,,,,,,
27177585932375,0.2424926758,-0.5130004883,-0.8342590332,,,,,,,,,,,,,,,,,,,,,,,,,,
27177626089375,,,,,,,-0.0134223319,0.0447237958,-0.0482791158,,,,,,,,,,,,,,,,,,,,
27177647695375,,,,,,,,,,,,,-81.5964050293,128.8822174072,361.3514099121,,,,,,,,,,,,,,
27177685952375,0.1855468750,-0.6224975586,-0.9160308838,,,,,,,,,,,,,,,,,,,,,,,,,,
27177721761375,,,,,,,-0.1123861969,0.0998911777,-0.1442037814,,,,,,,,,,,,,,,,,,,,
27177746145375,,,,,,,,,,,,,-80.5451660156,127.8380126953,361.0127258301,,,,,,,,,,,,,,
27177785960375,0.1812896729,-0.4966278076,-0.7727050781,,,,,,,,,,,,,,,,,,,,,,,,,,
27177817423375,,,,,,,-0.0244821736,-0.0255383833,0.0204823719,,,,,,,,,,,,,,,,,,,,
27177844564375,,,,,,,,,,,,,-80.8955841064,129.5783538818,359.6579589844,,,,,,,,,,,,,,
27177886005375,0.2028198242,-0.4962768555,-0.8363647461,,,,,,,,,,,,,,,,,,,,,,,,,,
27177913076375,,,,,,,-0.0097469033,-0.0557719195,0.0346879395,,,,,,,,,,,,,,,,,,,,
27177942984375,,,,,,,,,,,,,-80.7203826904,126.9678344727,360.1659851074,,,,,,,,,,,,,,
27177986011375,0.1596984863,-0.5343017578,-0.8754577637,,,,,,,,,,,,,,,,,,,,,,,,,,
27178008748375,,,,,,,-0.0151797519,-0.1881563258,-0.0260883260,,,,,,,,,,,,,,,,,,,,
27178041403375,,,,,,,,,,,,,-80.8955841064,126.7938079834,361.0127258301,,,,,,,,,,,,,,
27178086055375,0.1144561768,-0.5435028076,-0.8556671143,,,,,,,,,,,,,,,,,,,,,,,,,,
27178104391375,,,,,,,-0.0938697705,-0.0199950135,-0.0823036619,,,,,,,,,,,,,,,,,,,,
27178139821375,,,,,,,,,,,,,-81.9468231201,127.8380126953,361.0127258301,,,,,,,,,,,,,,
27178186100375,0.1877288818,-0.5010223389,-0.7621307373,,,,,,,,,,,,,,,,,,,,,,,,,,
27178200056375,,,,,,,0.0956719316,0.0439155264,-0.0810810047,,,,,,,,,,,,,,,,,,,,
27178239763250,,,,,,,,,,,,,,,,52.3943535006162,13.132345536736,159.609375,0.0,36.67333984375,5.0,6.0,,,,,,,
27178238225375,,,,,,,,,,,,,-81.9468231201,128.1860809326,358.6418762207,,,,,,,,,,,,,,
27178286114375,0.1138763428,-0.5299835205,-0.8157501221,,,,,,,,,,,,,,,,,,,,,,,,,,
27178295736375,,,,,,,0.0119059280,0.1007407261,-0.0002287655,,,,,,,,,,,,,,,,,,,,
27178335561375,,,,,,,,,,,,,-81.4212036133,128.3601074219,361.5207519531,,,,,,,,,,,,,,
27178386128375,0.1784057617,-0.4808959961,-0.8208160400,,,,,,,,,,,,,,,,,,,,,,,,,,
27178391379375,,,,,,,0.0596084694,0.0803848543,0.0275663804,,,,,,,,,,,,,,,,,,,,
27178433969375,,,,,,,,,,,,,-80.1947631836,128.1860809326,360.3353271484,,,,,,,,,,,,,,
27178487050375,,,,,,,0.0968394615,-0.0262854000,-0.0085812377,,,,,,,,,,,,,,,,,,,,
27178486163375,0.1404571533,-0.5252838135,-0.8652954102,,,,,,,,,,,,,,,,,,,,,,,,,,
27178532400375,,,,,,,,,,,,,-80.5451660156,128.1860809326,361.0127258301,,,,,,,,,,,,,,
27178582723375,,,,,,,0.1142386918,-0.1740855141,0.0499632989,,,,,,,,,,,,,,,,,,,,
27178586207375,0.0927886963,-0.5177459717,-0.8247833252,,,,,,,,,,,,,,,,,,,,,,,,,,
27178630789375,,,,,,,,,,,,,-79.3187255859,127.3159027100,360.8433837891,,,,,,,,,,,,,,
27178678365375,,,,,,,-0.0240733784,0.0487651427,0.1611191154,,,,,,,,,,,,,,,,,,,,
27178686240375,0.0912322998,-0.5058746338,-0.8005218506,,,,,,,,,,,,,,,,,,,,,,,,,,
27178729208375,,,,,,,,,,,,,-80.7203826904,128.3601074219,360.5046997070,,,,,,,,,,,,,,
27178774038375,,,,,,,-0.1208334776,0.0386797517,0.1802603194,,,,,,,,,,,,,,,,,,,,
27178786265375,0.1637725830,-0.5473937988,-0.8808746338,,,,,,,,,,,,,,,,,,,,,,,,,,
27178827625375,,,,,,,,,,,,,-78.0922851562,128.5341491699,359.6579589844,,,,,,,,,,,,,,
27178869710375,,,,,,,-0.2968540446,0.1151830487,-0.5591868636,,,,,,,,,,,,,,,,,,,,
27178886279375,0.3121185303,-0.4566345215,-0.8675384521,,,,,,,,,,,,,,,,,,,,,,,,,,
27178925892750,,,,,,,,,,,,,-80.7203826904,127.3159027100,360.5046997070,,,,,,,,,,,,,,
27178965204750,,,,,,,0.1518915286,-0.1628642849,0.1149430979,,,,,,,,,,,,,,,,,,,,
27178971095750,,,,,,,,,,,,,,,,,,,,,,,,0,0,0,0,0,0
27178986170750,-0.0936279297,-0.4349822998,-0.7322387695,,,,,,,,,,,,,,,,,,,,,,,,,,
27179024324750,,,,,,,,,,,,,-79.3187255859,127.6639709473,358.8112182617,,,,,,,,,,,,,,
27179060880750,,,,,,,-0.0352549265,0.5151139444,0.4215059626,,,,,,,,,,,,,,,,,,,,
27179086215750,0.2393493652,-0.5409240723,-0.8880767822,,,,,,,,,,,,,,,,,,,,,,,,,,
27179122738750,,,,,,,,,,,,,-81.4212036133,127.6639709473,360.5046997070,,,,,,,,,,,,,,
27179156521750,,,,,,,0.0607400466,0.1131350778,0.0233271606,,,,,,,,,,,,,,,,,,,,
27179175242542,,,,,,,,,,,,,,,,52.3943535006162,13.132345536736,159.609375,0.0,36.7369384765625,5.0,6.0,,,,,,,
27179186259750,0.1278991699,-0.5196380615,-0.8441314697,,,,,,,,,,,,,,,,,,,,,,,,,,
27179221157750,,,,,,,,,,,,,-81.7716217041,127.6639709473,359.4885864258,,,,,,,,,,,,,,
27179252194750,,,,,,,-0.0394227736,0.0532419165,0.0168604729,,,,,,,,,,,,,,,,,,,,
27179286272750,0.0767974854,-0.4938201904,-0.8267669678,,,,,,,,,,,,,,,,,,,,,,,,,,
27179317623750,,,,,,,,,,,,,-81.0707855225,129.7523803711,359.8273010254,,,,,,,,,,,,,,
27179347862750,,,,,,,0.0253812568,0.0874741892,0.0087167926,,,,,,,,,,,,,,,,,,,,
27179386286750,0.0848388672,-0.4890594482,-0.8613281250,,,,,,,,,,,,,,,,,,,,,,,,,,
27179416005750,,,,,,,,,,,,,-80.3699645996,128.7081756592,361.5207519531,,,,,,,,,,,,,,
27179443508750,,,,,,,0.1719275547,-0.0794580743,-0.0656418609,,,,,,,,,,,,,,,,,,,,
27179486322750,0.0809020996,-0.5316162109,-0.8471374512,,,,,,,,,,,,,,,,,,,,,,,,,,
27179514434750,,,,,,,,,,,,,-81.7716217041,127.3159027100,360.1659851074,,,,,,,,,,,,,,
27179539181750,,,,,,,0.0511710424,0.0524256576,0.0179547658,,,,,,,,,,,,,,,,,,,,
27179586337750,0.0923767090,-0.5068664551,-0.8025512695,,,,,,,,,,,,,,,,,,,,,,,,,,
27179612821750,,,,,,,,,,,,,-80.8955841064,127.8380126953,360.3353271484,,,,,,,,,,,,,,
27179634854750,,,,,,,0.0252845840,-0.0166181252,0.1193335853,,,,,,,,,,,,,,,,,,,,
27179686351750,0.1207580566,-0.5058441162,-0.8668365479,,,,,,,,,,,,,,,,,,,,,,,,,,
27179711240750,,,,,,,,,,,,,-81.0707855225,129.0562438965,359.8273010254,,,,,,,,,,,,,,
27179730496750,,,,,,,0.0413386517,0.0318167855,0.0446084809,,,,,,,,,,,,,,,,,,,,
27179786394750,0.0787506104,-0.5535278320,-0.8739471436,,,,,,,,,,,,,,,,,,,,,,,,,,
27179809628750,,,,,,,,,,,,,-81.9468231201,127.8380126953,358.9805603027,,,,,,,,,,,,,,
27179826169750,,,,,,,0.0098140149,0.0169856414,-0.0190764892,,,,,,,,,,,,,,,,,,,,
27179886409750,0.1390380859,-0.5608825684,-0.8434600830,,,,,,,,,,,,,,,,,,,,,,,,,,
27179908047750,,,,,,,,,,,,,-80.5451660156,129.5783538818,358.6418762207,,,,,,,,,,,,,,
27179921841750,,,,,,,-0.0662234952,0.0603205987,-0.0220688170,,,,,,,,,,,,,,,,,,,,
27179986445750,0.1080932617,-0.4859313965,-0.8139801025,,,,,,,,,,,,,,,,,,,,,,,,,,
27180006436750,,,,,,,,,,,,,-81.0707855225,127.6639709473,359.4885864258,,,,,,,,,,,,,,
27180017484750,,,,,,,0.1618139341,-0.0744886157,0.0095519599,,,,,,,,,,,,,,,,,,,,
27180086459750,0.0793762207,-0.5272979736,-0.8309478760,,,,,,,,,,,,,,,,,,,,,,,,,,
27180104855750,,,,,,,,,,,,,-82.6476440430,127.4899444580,359.3192749023,,,,,,,,,,,,,,
27180113156750,,,,,,,0.1243395292,-0.1015463324,-0.0865514038,,,,,,,,,,,,,,,,,,,,
27180169530958,,,,,,,,,,,,,,,,52.3943535006162,13.132345536736,159.609375,0.0,36.7691040039062,5.0,6.0,,,,,,,
27180186503750,0.0906219482,-0.5691375732,-0.8182525635,,,,,,,,,,,,,,,,,,,,,,,,,,
27180203245750,,,,,,,,,,,,,-81.0707855225,127.6639709473,360.1659851074,,,,,,,,,,,,,,
27180208829750,,,,,,,-0.0066941217,0.0450806594,0.1047045751,,,,,,,,,,,,,,,,,,,,
27180286517750,0.1072540283,-0.5368499756,-0.8533477783,,,,,,,,,,,,,,,,,,,,,,,,,,
27180299710750,,,,,,,,,,,,,-81.2460021973,127.1418762207,357.6257934570,,,,,,,,,,,,,,
27180304470750,,,,,,,-0.0233734996,0.0157006662,0.0148660315,,,,,,,,,,,,,,,,,,,,
27180386531750,0.0463867188,-0.5671691895,-0.8195800781,,,,,,,,,,,,,,,,,,,,,,,,,,
27180398099750,,,,,,,,,,,,,-81.9468231201,127.8380126953,359.9966430664,,,,,,,,,,,,,,
27180400143750,,,,,,,-0.1097022632,0.1440224202,0.0645880480,,,,,,,,,,,,,,,,,,,,
27180486567750,0.1436309814,-0.5441894531,-0.7944030762,,,,,,,,,,,,,,,,,,,,,,,,,,
27180495807750,,,,,,,0.0679098088,-0.0932545803,-0.0652447835,,,,,,,,,,,,,,,,,,,,
27180496506750,,,,,,,,,,,,,-82.1220245361,127.6639709473,359.8273010254,,,,,,,,,,,,,,
27180591459750,,,,,,,0.0814293461,-0.0217766682,-0.1377908895,,,,,,,,,,,,,,,,,,,,
27180586583750,0.1240539551,-0.5560302734,-0.8579711914,,,,,,,,,,,,,,,,,,,,,,,,,,
27180594906750,,,,,,,,,,,,,-82.1220245361,125.9236297607,359.8273010254,,,,,,,,,,,,,,
27180687130750,,,,,,,-0.0247040149,0.0387596465,0.0220589633,,,,,,,,,,,,,,,,,,,,
27180686624750,0.0611877441,-0.5272979736,-0.8349304199,,,,,,,,,,,,,,,,,,,,,,,,,,
27180693325750,,,,,,,,,,,,,-82.9980621338,128.1860809326,360.6740112305,,,,,,,,,,,,,,
27180782773750,,,,,,,-0.0099085572,0.0424015193,-0.0068664282,,,,,,,,,,,,,,,,,,,,
27180786670750,0.1187591553,-0.5239410400,-0.8536376953,,,,,,,,,,,,,,,,,,,,,,,,,,
27180791714750,,,,,,,,,,,,,-82.6476440430,128.8822174072,361.3514099121,,,,,,,,,,,,,,
27180878446750,,,,,,,0.0123852970,-0.1138527998,0.0593160543,,,,,,,,,,,,,,,,,,,,
27180886683750,0.0316467285,-0.5379638672,-0.8611450195,,,,,,,,,,,,,,,,,,,,,,,,,,
27180890133750,,,,,,,,,,,,,-82.1220245361,129.0562438965,361.1820678711,,,,,,,,,,,,,,
27180974119750,,,,,,,-0.1498821735,0.1183002788,0.0311760290,,,,,,,,,,,,,,,,,,,,
27180988522750,,,,,,,,,,,,,-81.4212036133,128.3601074219,359.4885864258,,,,,,,,,,,,,,
27180986719750,0.1344299316,-0.5182647705,-0.8532257080,,,,,,,,,,,,,,,,,,,,,,,,,,
27181069761750,,,,,,,-0.0602849123,0.0483337106,0.0332745999,,,,,,,,,,,,,,,,,,,,
27181086941750,,,,,,,,,,,,,-80.1947631836,126.7938079834,361.6901245117,,,,,,,,,,,,,,
27181086764750,0.0699310303,-0.5421905518,-0.7973937988,,,,,,,,,,,,,,,,,,,,,,,,,,
27181147530417,,,,,,,,,,,,,,,,52.3943535006162,13.132345536736,159.609375,0.0,36.7652587890625,5.0,6.0,,,,,,,
27181165432750,,,,,,,-0.1282929918,0.2609644868,0.3275456446,,,,,,,,,,,,,,,,,,,,
27181185331750,,,,,,,,,,,,,-80.8955841064,128.5341491699,359.3192749023,,,,,,,,,,,,,,
27181186807750,0.1063995361,-0.4913940430,-0.8349761963,,,,,,,,,,,,,,,,,,,,,,,,,,
27181261106750,,,,,,,-0.0839492291,0.3385157377,0.1959098530,,,,,,,,,,,,,,,,,,,,
27181283749750,,,,,,,,,,,,,-82.9980621338,127.4899444580,357.9644775391,,,,,,,,,,,,,,
27181286822750,0.0192260742,-0.5739898682,-0.7463836670,,,,,,,,,,,,,,,,,,,,,,,,,,
27181356748750,,,,,,,0.0357753082,0.0617706899,-0.1188496889,,,,,,,,,,,,,,,,,,,,
27181380185750,,,,,,,,,,,,,-82.6476440430,126.0976715088,358.6418762207,,,,,,,,,,,,,,
27181386866750,0.0992431641,-0.4989776611,-0.8169860840,,,,,,,,,,,,,,,,,,,,,,,,,,
27181452417750,,,,,,,-0.0543804179,0.0206221879,0.1101659195,,,,,,,,,,,,,,,,,,,,
27181478600750,,,,,,,,,,,,,-84.0492858887,126.4457397461,358.3031616211,,,,,,,,,,,,,,
27181481166750,,,,,,,,,,,,,,,,,,,,,,,,0,0,0,0,0,0
27181486871750,0.1817779541,-0.5028533936,-0.8795928955,,,,,,,,,,,,,,,,,,,,,,,,,,
27181548092750,,,,,,,0.0900856849,0.1350795252,0.0141746749,,,,,,,,,,,,,,,,,,,,
27181576992750,,,,,,,,,,,,,-84.0492858887,127.8380126953,361.0127258301,,,,,,,,,,,,,,
27181586885750,0.1925659180,-0.5633087158,-0.9061889648,,,,,,,,,,,,,,,,,,,,,,,,,,
27181643734750,,,,,,,-0.0297728094,-0.3759717669,0.1058353533,,,,,,,,,,,,,,,,,,,,
27181675413750,,,,,,,,,,,,,-83.5236816406,128.7081756592,360.1659851074,,,,,,,,,,,,,,
27181686930750,0.0698699951,-0.5659484863,-0.9713439941,,,,,,,,,,,,,,,,,,,,,,,,,,
27181739407750,,,,,,,-0.2703441402,-0.0842863853,-0.2879657445,,,,,,,,,,,,,,,,,,,,
27181773800750,,,,,,,,,,,,,-82.9980621338,126.0976715088,355.5936279297,,,,,,,,,,,,,,
27181786975750,0.2104339600,-0.4243316650,-0.7618713379,,,,,,,,,,,,,,,,,,,,,,,,,,
27181835050750,,,,,,,0.1698894375,0.7214143866,-0.5299815738,,,,,,,,,,,,,,,,,,,,
27181872219750,,,,,,,,,,,,,-84.7501220703,106.6058502197,358.3031616211,,,,,,,,,,,,,,
27181886989750,-0.0440368652,-0.5575561523,-0.9082031250,,,,,,,,,,,,,,,,,,,,,,,,,,
27181930722750,,,,,,,0.2640572158,-3.5024190234,-0.0299930528,,,,,,,,,,,,,,,,,,,,
27181970608750,,,,,,,,,,,,,-90.0063018799,106.6058502197,370.8348083496,,,,,,,,,,,,,,
27181987025750,0.1831970215,-0.5970153809,-0.7620849609,,,,,,,,,,,,,,,,,,,,,,,,,,
27182026394750,,,,,,,-0.2753972220,1.8244357890,-0.6216278711,,,,,,,,,,,,,,,,,,,,
27182039481125,,,,,,,,,,,,,,,,52.3943535006162,13.132345536736,159.609375,0.0,36.8220825195312,5.0,6.0,,,,,,,
27182069037750,,,,,,,,,,,,,-56.8923645020,82.0670471191,394.7126464844,,,,,,,,,,,,,,
27182087039750,0.2673187256,-0.4428558350,-0.8207855225,,,,,,,,,,,,,,,,,,,,,,,,,,
27182122037750,,,,,,,0.2836165361,-1.0424904140,0.3619632732,,,,,,,,,,,,,,,,,,,,
27182167416750,,,,,,,,,,,,,-81.0707855225,126.9678344727,358.4725341797,,,,,,,,,,,,,,
27182187083750,0.0238037109,-0.3025665283,-0.6353912354,,,,,,,,,,,,,,,,,,,,,,,,,,
27182217709750,,,,,,,-0.0810738141,0.4199978145,-0.2818391424,,,,,,,,,,,,,,,,,,,,
27182265835750,,,,,,,,,,,,,-82.8228454590,125.2274932861,358.4725341797,,,,,,,,,,,,,,
27182287097750,0.1860961914,-0.5608367920,-0.8650360107,,,,,,,,,,,,,,,,,,,,,,,,,,
27182313365750,,,,,,,-0.2195137160,0.3298364957,-0.1824491715,,,,,,,,,,,,,,,,,,,,
27182362271750,,,,,,,,,,,,,-82.4724426270,126.2716979980,359.8273010254,,,,,,,,,,,,,,
27182387111750,0.1769561768,-0.5163116455,-0.7175140381,,,,,,,,,,,,,,,,,,,,,,,,,,
27182409024750,,,,,,,-0.0106113654,-0.0601608090,0.2529686119,,,,,,,,,,,,,,,,,,,,
27182460690750,,,,,,,,,,,,,-81.5964050293,126.0976715088,360.3353271484,,,,,,,,,,,,,,
27182487147750,0.1666564941,-0.5007171631,-0.8358764648,,,,,,,,,,,,,,,,,,,,,,,,,,
27182504697750,,,,,,,0.0953829787,-0.0600755879,0.0771909252,,,,,,,,,,,,,,,,,,,,
27182559080750,,,,,,,,,,,,,-82.8228454590,125.9236297607,361.8594360352,,,,,,,,,,,,,,
27182587191750,0.2789459229,-0.5993194580,-0.9250335693,,,,,,,,,,,,,,,,,,,,,,,,,,
27182600338750,,,,,,,0.0774298108,-0.1802573900,0.0752047397,,,,,,,,,,,,,,,,,,,,
27182657498750,,,,,,,,,,,,,-82.9980621338,126.7938079834,360.3353271484,,,,,,,,,,,,,,
27182687204750,0.1044616699,-0.5344848633,-0.8200836182,,,,,,,,,,,,,,,,,,,,,,,,,,
27182696008750,,,,,,,0.0800551550,-0.0483443633,-0.0784599215,,,,,,,,,,,,,,,,,,,,
27182755886750,,,,,,,,,,,,,-82.1220245361,126.6197662354,360.1659851074,,,,,,,,,,,,,,
27182787250750,0.1398620605,-0.5254974365,-0.7847595215,,,,,,,,,,,,,,,,,,,,,,,,,,
27182791684750,,,,,,,0.0441014150,0.0437717157,-0.0433578604,,,,,,,,,,,,,,,,,,,,
27182854276750,,,,,,,,,,,,,-81.5964050293,124.7053985596,360.6740112305,,,,,,,,,,,,,,
27182887264750,0.1260223389,-0.5425720215,-0.8230285645,,,,,,,,,,,,,,,,,,,,,,,,,,
27182887342750,,,,,,,0.2310212351,-0.1132828833,-0.1191903072,,,,,,,,,,,,,,,,,,,,
27182952695750,,,,,,,,,,,,,-80.7203826904,126.9678344727,358.8112182617,,,,,,,,,,,,,,
27182982998750,,,,,,,0.1084423217,-0.0580302802,-0.1272836538,,,,,,,,,,,,,,,,,,,,
27182987299750,0.1346435547,-0.4980773926,-0.7749633789,,,,,,,,,,,,,,,,,,,,,,,,,,
27183025371833,,,,,,,,,,,,,,,,52.3943535006162,13.132345536736,159.609375,0.0,36.83984375,5.0,6.0,,,,,,,
27183051083750,,,,,,,,,,,,,-81.5964050293,126.4457397461,360.6740112305,,,,,,,,,,,,,,
27183078671750,,,,,,,-0.0369111464,0.0616961214,-0.0058408449,,,,,,,,,,,,,,,,,,,,
27183087313750,0.1775970459,-0.5337982178,-0.7910766602,,,,,,,,,,,,,,,,,,,,,,,,,,
27183149503750,,,,,,,,,,,,,-82.8228454590,125.5755615234,361.1820678711,,,,,,,,,,,,,,
27183174313750,,,,,,,0.0550408818,0.0002663161,0.0124329675,,,,,,,,,,,,,,,,,,,,
27183187327750,0.1502685547,-0.5639343262,-0.7998199463,,,,,,,,,,,,,,,,,,,,,,,,,,
27183247921750,,,,,,,,,,,,,-79.3187255859,126.9678344727,361.5207519531,,,,,,,,,,,,,,
27183269981750,,,,,,,0.0329931038,0.0449821224,-0.0220344622,,,,,,,,,,,,,,,,,,,,
27183287341750,0.1421813965,-0.5675048828,-0.8292388916,,,,,,,,,,,,,,,,,,,,,,,,,,
27183344387750,,,,,,,,,,,,,-82.4724426270,126.2716979980,359.4885864258,,,,,,,,,,,,,,
27183365628750,,,,,,,-0.0554419539,0.0617041109,0.0355798322,,,,,,,,,,,,,,,,,,,,
27183387355750,0.1363983154,-0.5783386230,-0.8150329590,,,,,,,,,,,,,,,,,,,,,,,,,,
27183442776750,,,,,,,,,,,,,-80.7203826904,126.9678344727,359.8273010254,,,,,,,,,,,,,,
27183461301750,,,,,,,-0.1297678504,-0.0429501305,0.0347294848,,,,,,,,,,,,,,,,,,,,
27183487390750,0.1565246582,-0.4963684082,-0.8237304688,,,,,,,,,,,,,,,,,,,,,,,,,,
27183541166750,,,,,,,,,,,,,-81.0707855225,127.3159027100,359.4885864258,,,,,,,,,,,,,,
27183556973750,,,,,,,0.0167416959,0.1347013564,-0.0132713307,,,,,,,,,,,,,,,,,,,,
27183587404750,0.1440429688,-0.5905456543,-0.7993164062,,,,,,,,,,,,,,,,,,,,,,,,,,
27183639585750,,,,,,,,,,,,,-80.5451660156,126.7938079834,358.3031616211,,,,,,,,,,,,,,
27183652637750,,,,,,,-0.0175196052,0.1030576763,0.0085721829,,,,,,,,,,,,,,,,,,,,
27183687449750,0.1588439941,-0.5545196533,-0.8198852539,,,,,,,,,,,,,,,,,,,,,,,,,,
27183738003750,,,,,,,,,,,,,-81.0707855225,127.6639709473,360.1659851074,,,,,,,,,,,,,,
27183748288750,,,,,,,-0.1965748443,-0.0713727172,-0.0725855208,,,,,,,,,,,,,,,,,,,,
27183787462750,0.1613159180,-0.5716094971,-0.8076477051,,,,,,,,,,,,,,,,,,,,,,,,,,
27183836422750,,,,,,,,,,,,,-81.0707855225,128.7081756592,359.8273010254,,,,,,,,,,,,,,
27183843960750,,,,,,,0.0073519225,-0.1997810239,0.1646624513,,,,,,,,,,,,,,,,,,,,
27183887477750,0.0934753418,-0.4989929199,-0.8403625488,,,,,,,,,,,,,,,,,,,,,,,,,,
27183934706500,,,,,,,,,,,,,-80.8955841064,126.7938079834,358.6418762207,,,,,,,,,,,,,,
27183939467500,,,,,,,-0.0883493039,0.0566387785,0.0031087079,,,,,,,,,,,,,,,,,,,,
27183987346500,0.1611022949,-0.5906677246,-0.8178710938,,,,,,,,,,,,,,,,,,,,,,,,,,
27183990978500,,,,,,,,,,,,,,,,,,,,,,,,0,0,0,0,0,0
27184031098542,,,,,,,,,,,,,,,,52.3943535006162,13.132345536736,159.609375,0.0,36.9378051757812,5.0,6.0,,,,,,,
27184033126500,,,,,,,,,,,,,-81.4212036133,127.3159027100,357.7951354980,,,,,,,,,,,,,,
27184035144500,,,,,,,0.0571538338,0.0331496977,0.0683873136,,,,,,,,,,,,,,,,,,,,
27184087359500,0.0965576172,-0.5364074707,-0.7751617432,,,,,,,,,,,,,,,,,,,,,,,,,,
27184130781500,,,,,,,0.0703234317,0.1556724184,0.0402499515,,,,,,,,,,,,,,,,,,,,
27184131507500,,,,,,,,,,,,,-81.9468231201,126.4457397461,359.3192749023,,,,,,,,,,,,,,
27184187404500,0.1707153320,-0.5474548340,-0.8178253174,,,,,,,,,,,,,,,,,,,,,,,,,,
27184226455500,,,,,,,0.0923126202,0.0673926230,0.1255134506,,,,,,,,,,,,,,,,,,,,
27184229933500,,,,,,,,,,,,,-83.1732635498,128.0120391846,359.1499023438,,,,,,,,,,,,,,
27184287418500,0.1135253906,-0.5829925537,-0.7937164307,,,,,,,,,,,,,,,,,,,,,,,,,,
27184322126500,,,,,,,0.0523361754,0.0427743618,0.0406664698,,,,,,,,,,,,,,,,,,,,
27184326826500,,,,,,,,,,,,,-83.3484649658,129.5783538818,361.0127258301,,,,,,,,,,,,,,
27184387433500,0.1432495117,-0.5841369629,-0.8348541260,,,,,,,,,,,,,,,,,,,,,,,,,,
27184417768500,,,,,,,0.0047755805,-0.0689399196,0.0875239903,,,,,,,,,,,,,,,,,,,,
27184425246500,,,,,,,,,,,,,-83.1732635498,128.0120391846,361.1820678711,,,,,,,,,,,,,,
27184487468500,0.1033782959,-0.6000518799,-0.8136596680,,,,,,,,,,,,,,,,,,,,,,,,,,
27184513442500,,,,,,,0.1022233079,-0.2323847736,0.0420523789,,,,,,,,,,,,,,,,,,,,
27184523634500,,,,,,,,,,,,,-82.2972259521,128.1860809326,359.9966430664,,,,,,,,,,,,,,
27184587481500,0.0697021484,-0.5667572021,-0.8159332275,,,,,,,,,,,,,,,,,,,,,,,,,,
27184609114500,,,,,,,0.0222549720,-0.3336847635,-0.0804847229,,,,,,,,,,,,,,,,,,,,
27184622053500,,,,,,,,,,,,,-81.4212036133,128.3601074219,360.8433837891,,,,,,,,,,,,,,
27184687495500,0.1566772461,-0.5230865479,-0.8950042725,,,,,,,,,,,,,,,,,,,,,,,,,,
27184704757500,,,,,,,-0.1141532043,-0.3806709146,-0.2174974367,,,,,,,,,,,,,,,,,,,,
27184720472500,,,,,,,,,,,,,-78.2675018311,128.7081756592,360.5046997070,,,,,,,,,,,,,,
27184787543500,0.2049713135,-0.3967132568,-0.8439941406,,,,,,,,,,,,,,,,,,,,,,,,,,
27184800429500,,,,,,,-0.0619328764,-0.4244639356,-0.3799960696,,,,,,,,,,,,,,,,,,,,
27184818891500,,,,,,,,,,,,,-76.6906433105,128.1860809326,359.3192749023,,,,,,,,,,,,,,
27184887554500,-0.0851440430,-0.5498504639,-0.7726440430,,,,,,,,,,,,,,,,,,,,,,,,,,
27184896070500,,,,,,,0.0212725318,0.5824120251,0.0090747214,,,,,,,,,,,,,,,,,,,,
27184917306500,,,,,,,,,,,,,-78.0922851562,127.8380126953,360.3353271484,,,,,,,,,,,,,,
27184991744500,,,,,,,-0.0833119347,0.4538718919,0.2456550390,,,,,,,,,,,,,,,,,,,,
27184987590500,0.2556152344,-0.5509796143,-0.8371887207,,,,,,,,,,,,,,,,,,,,,,,,,,
27185015712500,,,,,,,,,,,,,-80.5451660156,128.1860809326,359.6579589844,,,,,,,,,,,,,,
27185039895833,,,,,,,,,,,,,,,,52.3943535006162,13.132345536736,159.609375,0.0,36.9386596679688,5.0,6.0,,,,,,,
27185087415500,,,,,,,0.0912457579,-0.0816445295,0.2104472504,,,,,,,,,,,,,,,,,,,,
27185087635500,0.1878509521,-0.5089569092,-0.8220977783,,,,,,,,,,,,,,,,,,,,,,,,,,
27185114118500,,,,,,,,,,,,,-80.7203826904,128.7081756592,360.8433837891,,,,,,,,,,,,,,
27185183076500,,,,,,,-0.0879181381,0.0346144363,-0.0856147701,,,,,,,,,,,,,,,,,,,,
27185187648500,0.1239776611,-0.5296020508,-0.8030090332,,,,,,,,,,,,,,,,,,,,,,,,,,
27185212537500,,,,,,,,,,,,,-80.0195617676,128.7081756592,360.1659851074,,,,,,,,,,,,,,
27185278731500,,,,,,,0.0691002419,-0.0799108117,-0.0679486910,,,,,,,,,,,,,,,,,,,,
27185287685500,0.0561370850,-0.5628356934,-0.8424835205,,,,,,,,,,,,,,,,,,,,,,,,,,
27185309004500,,,,,,,,,,,,,-80.7203826904,127.3159027100,361.5207519531,,,,,,,,,,,,,,
27185374403500,,,,,,,0.0105972506,0.0910920935,0.0287581450,,,,,,,,,,,,,,,,,,,,
27185387724500,0.1079406738,-0.5813293457,-0.8713226318,,,,,,,,,,,,,,,,,,,,,,,,,,
27185407401500,,,,,,,,,,,,,-80.0195617676,128.0120391846,359.8273010254,,,,,,,,,,,,,,
27185470045500,,,,,,,0.1913071116,0.0345678309,-0.1087171599,,,,,,,,,,,,,,,,,,,,
27185487742500,0.1552886963,-0.5605316162,-0.8041687012,,,,,,,,,,,,,,,,,,,,,,,,,,
27185505831500,,,,,,,,,,,,,-79.3187255859,125.5755615234,361.1820678711,,,,,,,,,,,,,,
27185565717500,,,,,,,-0.4244639356,0.2674506156,-0.0068350029,,,,,,,,,,,,,,,,,,,,
27185587787500,0.0330200195,-0.5460510254,-0.7686767578,,,,,,,,,,,,,,,,,,,,,,,,,,
27185604247500,,,,,,,,,,,,,-79.8443450928,129.2302856445,359.6579589844,,,,,,,,,,,,,,
27185661361500,,,,,,,0.1645679090,-0.0782716360,-0.0631368915,,,,,,,,,,,,,,,,,,,,
27185687831500,0.0864562988,-0.4648284912,-0.8061676025,,,,,,,,,,,,,,,,,,,,,,,,,,
27185702681500,,,,,,,,,,,,,-80.1947631836,128.5341491699,361.3514099121,,,,,,,,,,,,,,
27185757033500,,,,,,,-0.1654598017,0.0187539804,0.0301403256,,,,,,,,,,,,,,,,,,,,
27185787846500,0.0662994385,-0.5417785645,-0.8775939941,,,,,,,,,,,,,,,,,,,,,,,,,,
27185801070500,,,,,,,,,,,,,-81.4212036133,126.9678344727,361.1820678711,,,,,,,,,,,,,,
27185852706500,,,,,,,-0.0756910329,0.1963841619,0.0875926998,,,,,,,,,,,,,,,,,,,,
27185887890500,0.1166229248,-0.5304718018,-0.7694244385,,,,,,,,,,,,,,,,,,,,,,,,,,
27185899519500,,,,,,,,,,,,,-81.9468231201,128.8822174072,359.6579589844,,,,,,,,,,,,,,
27185948347500,,,,,,,-0.0802857848,0.1199128228,0.0761688040,,,,,,,,,,,,,,,,,,,,
27185987926500,0.0146484375,-0.5288696289,-0.8531799316,,,,,,,,,,,,,,,,,,,,,,,,,,
27185997938500,,,,,,,,,,,,,-81.9468231201,127.1418762207,358.9805603027,,,,,,,,,,,,,,
27186034601958,,,,,,,,,,,,,,,,52.3943535006162,13.132345536736,159.609375,0.0,36.952392578125,5.0,6.0,,,,,,,
27186044019500,,,,,,,-0.0118508005,0.2159424170,0.0269908713,,,,,,,,,,,,,,,,,,,,
27186087970500,0.1150512695,-0.5572509766,-0.8380126953,,,,,,,,,,,,,,,,,,,,,,,,,,
27186096357500,,,,,,,,,,,,,-82.9980621338,128.8822174072,361.0127258301,,,,,,,,,,,,,,
27186139692500,,,,,,,-0.0298867927,0.0994371088,0.0425091110,,,,,,,,,,,,,,,,,,,,
27186187984500,0.1477050781,-0.5197601318,-0.8255920410,,,,,,,,,,,,,,,,,,,,,,,,,,
27186194776500,,,,,,,,,,,,,-83.8740844727,129.0562438965,360.5046997070,,,,,,,,,,,,,,
27186235334500,,,,,,,-0.0393745704,0.0677481550,-0.0071780181,,,,,,,,,,,,,,,,,,,,
27186288029500,0.1525878906,-0.5120239258,-0.8216400146,,,,,,,,,,,,,,,,,,,,,,,,,,
27186293195500,,,,,,,,,,,,,-84.3997039795,128.8822174072,361.6901245117,,,,,,,,,,,,,,
27186331007500,,,,,,,0.0008807074,0.1043293357,-0.0015140071,,,,,,,,,,,,,,,,,,,,
27186388074500,0.1805419922,-0.5262908936,-0.8551025391,,,,,,,,,,,,,,,,,,,,,,,,,,
27186389673500,,,,,,,,,,,,,-82.9980621338,128.1860809326,361.0127258301,,,,,,,,,,,,,,
27186426649500,,,,,,,0.0901927440,-0.0078709726,0.1065426889,,,,,,,,,,,,,,,,,,,,
27186488077500,,,,,,,,,,,,,-82.8228454590,126.9678344727,360.5046997070,,,,,,,,,,,,,,
27186488106500,0.0997314453,-0.5591888428,-0.7494659424,,,,,,,,,,,,,,,,,,,,,,,,,,
27186522322500,,,,,,,0.0624737644,-0.0615070370,0.0421589053,,,,,,,,,,,,,,,,,,,,
27186586470500,,,,,,,,,,,,,-80.8955841064,128.1860809326,360.6740112305,,,,,,,,,,,,,,
27186588122500,0.0084075928,-0.5703277588,-0.9801483154,,,,,,,,,,,,,,,,,,,,,,,,,,
27186617994500,,,,,,,0.2406600140,-0.1755675633,-0.3327587824,,,,,,,,,,,,,,,,,,,,
27186684890500,,,,,,,,,,,,,-80.5451660156,127.4899444580,360.3353271484,,,,,,,,,,,,,,
27186688167500,0.1025695801,-0.5614318848,-0.7474822998,,,,,,,,,,,,,,,,,,,,,,,,,,
27186713636500,,,,,,,-0.0526187368,-0.1231991636,-0.2075510627,,,,,,,,,,,,,,,,,,,,
27186783308500,,,,,,,,,,,,,-81.7716217041,128.0120391846,361.1820678711,,,,,,,,,,,,,,
27186788182500,0.1133270264,-0.4864501953,-0.8890380859,,,,,,,,,,,,,,,,,,,,,,,,,,
27186809309500,,,,,,,0.0508237662,0.0029587720,0.1453377554,,,,,,,,,,,,,,,,,,,,
27186881697500,,,,,,,,,,,,,-80.7203826904,128.0120391846,361.5207519531,,,,,,,,,,,,,,
27186888226500,0.0751037598,-0.5453796387,-0.8616180420,,,,,,,,,,,,,,,,,,,,,,,,,,
27186904952500,,,,,,,0.0148782821,0.1907369289,0.0987899606,,,,,,,,,,,,,,,,,,,,
27186980116500,,,,,,,,,,,,,-79.8443450928,128.5341491699,359.9966430664,,,,,,,,,,,,,,
27186988291500,0.1038970947,-0.5522766113,-0.7975311279,,,,,,,,,,,,,,,,,,,,,,,,,,
27187000623500,,,,,,,0.0231473972,0.0437557367,-0.0082028025,,,,,,,,,,,,,,,,,,,,
27187064017667,,,,,,,,,,,,,,,,52.3943535006162,13.132345536736,159.609375,0.0,36.9228515625,5.0,6.0,,,,,,,
27187078535500,,,,,,,,,,,,,-81.5964050293,126.7938079834,361.0127258301,,,,,,,,,,,,,,
27187088306500,-0.0372314453,-0.5723876953,-0.7159118652,,,,,,,,,,,,,,,,,,,,,,,,,,
27187096296500,,,,,,,-0.0662053858,0.1959394140,-0.1394130210,,,,,,,,,,,,,,,,,,,,
27187176954500,,,,,,,,,,,,,-82.2972259521,127.8380126953,359.9966430664,,,,,,,,,,,,,,
27187191939500,,,,,,,0.0561934979,0.1201951179,-0.0695708224,,,,,,,,,,,,,,,,,,,,
27187188346500,0.1917877197,-0.5172424316,-0.8908996582,,,,,,,,,,,,,,,,,,,,,,,,,,
27187275344500,,,,,,,,,,,,,-82.1220245361,128.3601074219,360.8433837891,,,,,,,,,,,,,,
27187287612500,,,,,,,-0.0850565715,0.1827953825,-0.0075050543,,,,,,,,,,,,,,,,,,,,
27187288395500,0.2099456787,-0.5415344238,-0.7025451660,,,,,,,,,,,,,,,,,,,,,,,,,,
27187371810500,,,,,,,,,,,,,-80.5451660156,128.8822174072,361.0127258301,,,,,,,,,,,,,,
27187383283500,,,,,,,0.0271160399,0.0751011427,-0.1077395135,,,,,,,,,,,,,,,,,,,,
27187388409500,0.1477355957,-0.5119628906,-0.8392639160,,,,,,,,,,,,,,,,,,,,,,,,,,
27187470198500,,,,,,,,,,,,,-80.8955841064,127.4899444580,361.3514099121,,,,,,,,,,,,,,
27187478925500,,,,,,,-0.0027672907,0.0691822672,0.0215763985,,,,,,,,,,,,,,,,,,,,
27187488445500,0.1198577881,-0.5554351807,-0.7471160889,,,,,,,,,,,,,,,,,,,,,,,,,,
27187568617500,,,,,,,,,,,,,-82.4724426270,128.3601074219,360.8433837891,,,,,,,,,,,,,,
27187574599500,,,,,,,0.0349055198,0.1203549076,0.0483536843,,,,,,,,,,,,,,,,,,,,
27187588489500,0.1379852295,-0.4962463379,-0.8590850830,,,,,,,,,,,,,,,,,,,,,,,,,,
27187667036500,,,,,,,,,,,,,-82.8228454590,128.3601074219,360.1659851074,,,,,,,,,,,,,,
27187670240500,,,,,,,-0.0699905366,0.1027380970,-0.0339635597,,,,,,,,,,,,,,,,,,,,
27187688564500,0.1819000244,-0.4960021973,-0.8566284180,,,,,,,,,,,,,,,,,,,,,,,,,,
27187765424500,,,,,,,,,,,,,-81.0707855225,128.3601074219,361.5207519531,,,,,,,,,,,,,,
27187765928500,,,,,,,-0.0736140336,0.0724220027,-0.0209761220,,,,,,,,,,,,,,,,,,,,
27187788608500,0.1188201904,-0.5043945312,-0.8779296875,,,,,,,,,,,,,,,,,,,,,,,,,,
27187861585500,,,,,,,0.0733988502,0.0742183048,-0.0476170540,,,,,,,,,,,,,,,,,,,,
27187863844500,,,,,,,,,,,,,-81.7716217041,129.0562438965,359.1499023438,,,,,,,,,,,,,,
27187888652500,0.2047271729,-0.4515686035,-0.8331909180,,,,,,,,,,,,,,,,,,,,,,,,,,
27187957227500,,,,,,,-0.0692134262,0.0836032845,0.0929776116,,,,,,,,,,,,,,,,,,,,
27187962264500,,,,,,,,,,,,,-81.7716217041,128.7081756592,360.8433837891,,,,,,,,,,,,,,
27187988688500,0.1494140625,-0.4555816650,-0.9092712402,,,,,,,,,,,,,,,,,,,,,,,,,,
27188052900500,,,,,,,-0.0568302598,0.0823715725,0.0591109909,,,,,,,,,,,,,,,,,,,,
27188060682500,,,,,,,,,,,,,-82.9980621338,127.1418762207,360.3353271484,,,,,,,,,,,,,,
27188088733500,0.1430664062,-0.4774780273,-0.8401336670,,,,,,,,,,,,,,,,,,,,,,,,,,
27188121338042,,,,,,,,,,,,,,,,52.3943535006162,13.132345536736,159.609375,0.0,36.9722900390625,5.0,8.0,,,,,,,
27188148573500,,,,,,,-0.0188157657,0.1248876077,0.0082581962,,,,,,,,,,,,,,,,,,,,
27188159102500,,,,,,,,,,,,,-85.1005249023,128.1860809326,359.9966430664,,,,,,,,,,,,,,
27188188748500,0.1315612793,-0.5055999756,-0.8306732178,,,,,,,,,,,,,,,,,,,,,,,,,,
27188244215500,,,,,,,-0.0103525061,0.1419345019,0.0205361678,,,,,,,,,,,,,,,,,,,,
27188257490500,,,,,,,,,,,,,-82.9980621338,127.1418762207,361.0127258301,,,,,,,,,,,,,,
27188288791500,0.1641845703,-0.4949645996,-0.8357238770,,,,,,,,,,,,,,,,,,,,,,,,,,
27188339887500,,,,,,,-0.0013845775,0.1054332160,-0.0479278449,,,,,,,,,,,,,,,,,,,,
27188353956500,,,,,,,,,,,,,-82.9980621338,126.4457397461,360.6740112305,,,,,,,,,,,,,,
27188388805500,0.1807708740,-0.4380645752,-0.8719940186,,,,,,,,,,,,,,,,,,,,,,,,,,
27188435529500,,,,,,,0.0020181435,0.0862158455,0.0351156432,,,,,,,,,,,,,,,,,,,,
27188452376500,,,,,,,,,,,,,-84.3997039795,129.2302856445,361.0127258301,,,,,,,,,,,,,,
27188488842500,0.1808166504,-0.4115753174,-0.9408721924,,,,,,,,,,,,,,,,,,,,,,,,,,
27188531208500,,,,,,,0.0139024998,0.1566937406,0.0654242806,,,,,,,,,,,,,,,,,,,,
27188550764500,,,,,,,,,,,,,-84.3997039795,128.5341491699,361.0127258301,,,,,,,,,,,,,,
27188588886500,0.1498718262,-0.3895111084,-0.8567047119,,,,,,,,,,,,,,,,,,,,,,,,,,
27188626875500,,,,,,,-0.0441141982,0.1324749537,0.2038375509,,,,,,,,,,,,,,,,,,,,
27188649184500,,,,,,,,,,,,,-83.6988830566,127.8380126953,360.6740112305,,,,,,,,,,,,,,
27188688899500,0.1416168213,-0.4085998535,-0.8888244629,,,,,,,,,,,,,,,,,,,,,,,,,,
27188722526500,,,,,,,-0.0831894293,0.1492049317,0.1647916146,,,,,,,,,,,,,,,,,,,,
27188747602500,,,,,,,,,,,,,-83.8740844727,128.0120391846,359.8273010254,,,,,,,,,,,,,,
27188788945500,0.1208953857,-0.3745422363,-0.9001464844,,,,,,,,,,,,,,,,,,,,,,,,,,
27188818189500,,,,,,,-0.0405879066,0.1616312413,0.2159493412,,,,,,,,,,,,,,,,,,,,
27188846021500,,,,,,,,,,,,,-84.0492858887,127.1418762207,360.6740112305,,,,,,,,,,,,,,
27188888989500,0.1962585449,-0.4037322998,-0.9036560059,,,,,,,,,,,,,,,,,,,,,,,,,,
27188913719417,,,,,,,-0.0691380587,0.2162087331,0.2678849772,,,,,,,,,,,,,,,,,,,,
27188944299417,,,,,,,,,,,,,-86.6773834229,128.0120391846,359.8273010254,,,,,,,,,,,,,,
27188988909417,0.1270751953,-0.3996582031,-0.9156799316,,,,,,,,,,,,,,,,,,,,,,,,,,
27189009389417,,,,,,,-0.0556605994,0.1593462491,0.3125776140,,,,,,,,,,,,,,,,,,,,
27189042687417,,,,,,,,,,,,,-86.3269653320,128.0120391846,360.1659851074,,,,,,,,,,,,,,
27189088927417,0.0933227539,-0.3999023438,-0.9017333984,,,,,,,,,,,,,,,,,,,,,,,,,,
27189105047417,,,,,,,-0.0837223278,0.1361647634,0.3079503716,,,,,,,,,,,,,,,,,,,,
27189141106417,,,,,,,,,,,,,-85.6261444092,126.2716979980,360.8433837891,,,,,,,,,,,,,,
27189184346667,,,,,,,,,,,,,,,,52.3943535006162,13.132345536736,159.609375,0.0,36.9703979492188,5.0,8.0,,,,,,,
27189188970417,0.0609130859,-0.3824615479,-0.9291687012,,,,,,,,,,,,,,,,,,,,,,,,,,
27189200707417,,,,,,,0.0093711312,0.1244335388,0.3054358149,,,,,,,,,,,,,,,,,,,,
27189239495417,,,,,,,,,,,,,-88.0790252686,127.3159027100,361.1820678711,,,,,,,,,,,,,,
27189289015417,0.0114593506,-0.3832855225,-0.9062347412,,,,,,,,,,,,,,,,,,,,,,,,,,
27189296379417,,,,,,,-0.0721881771,0.2286243901,0.4069171661,,,,,,,,,,,,,,,,,,,,
27189335961417,,,,,,,,,,,,,-87.7286224365,127.3159027100,361.1820678711,,,,,,,,,,,,,,
27189389060417,0.0806274414,-0.3385925293,-0.8873901367,,,,,,,,,,,,,,,,,,,,,,,,,,
27189392021417,,,,,,,-0.0121975441,0.2313061933,0.4042564019,,,,,,,,,,,,,,,,,,,,
27189434380417,,,,,,,,,,,,,-89.8310852051,126.6197662354,360.8433837891,,,,,,,,,,,,,,
27189487683417,,,,,,,-0.0923576277,0.2639632062,0.5218213819,,,,,,,,,,,,,,,,,,,,
27189489065417,0.0046386719,-0.4132537842,-0.9471130371,,,,,,,,,,,,,,,,,,,,,,,,,,
27189532770417,,,,,,,,,,,,,-90.7071228027,127.1418762207,361.3514099121,,,,,,,,,,,,,,
27189583367417,,,,,,,-0.0478988164,0.3111797207,0.3868627642,,,,,,,,,,,,,,,,,,,,
27189589110417,-0.0578918457,-0.3755645752,-0.9281616211,,,,,,,,,,,,,,,,,,,,,,,,,,
27189631188417,,,,,,,,,,,,,-90.5319213867,127.6639709473,360.1659851074,,,,,,,,,,,,,,
27189679009417,,,,,,,-0.1060132525,0.3657252546,0.4840028965,,,,,,,,,,,,,,,,,,,,
27189689154417,-0.0182037354,-0.4623413086,-0.9726104736,,,,,,,,,,,,,,,,,,,,,,,,,,
27189729576417,,,,,,,,,,,,,-91.7583618164,128.1860809326,360.6740112305,,,,,,,,,,,,,,
27189774682417,,,,,,,-0.0492756707,0.2700818188,0.4589454801,,,,,,,,,,,,,,,,,,,,
27189789199417,-0.0250854492,-0.3857116699,-0.9285430908,,,,,,,,,,,,,,,,,,,,,,,,,,
27189827970417,,,,,,,,,,,,,-92.6343841553,128.7081756592,358.4725341797,,,,,,,,,,,,,,
27189870354417,,,,,,,-0.1285103058,0.3888801087,0.5790223537,,,,,,,,,,,,,,,,,,,,
27189889243417,-0.1631317139,-0.3824310303,-0.8989562988,,,,,,,,,,,,,,,,,,,,,,,,,,
27189926385417,,,,,,,,,,,,,-92.6343841553,128.7081756592,359.1499023438,,,,,,,,,,,,,,
27189966011417,,,,,,,-0.1828569015,0.4191722345,0.6727445851,,,,,,,,,,,,,,,,,,,,
27189989279417,-0.1226501465,-0.4477691650,-1.0323944092,,,,,,,,,,,,,,,,,,,,,,,,,,
27190024774417,,,,,,,,,,,,,-95.2624816895,129.5783538818,359.9966430664,,,,,,,,,,,,,,
27190061669417,,,,,,,-0.0305653661,0.4692276788,0.5112041576,,,,,,,,,,,,,,,,,,,,
27190089322417,-0.0982513428,-0.4297637939,-0.9308166504,,,,,,,,,,,,,,,,,,,,,,,,,,
27190123192417,,,,,,,,,,,,,-96.6641235352,128.5341491699,358.6418762207,,,,,,,,,,,,,,
27190157311417,,,,,,,0.1361820739,0.2118850911,0.6638578828,,,,,,,,,,,,,,,,,,,,
27190189368417,-0.1885833740,-0.5207977295,-0.7983398438,,,,,,,,,,,,,,,,,,,,,,,,,,
27190220958792,,,,,,,,,,,,,,,,52.3943535006162,13.132345536736,159.609375,0.0,36.9718017578125,5.0,8.0,,,,,,,
27190221611417,,,,,,,,,,,,,-98.2409820557,129.4043121338,358.1338500977,,,,,,,,,,,,,,
27190252997417,,,,,,,-0.1280213494,0.1784757352,0.3287408713,,,,,,,,,,,,,,,,,,,,
27190289412417,-0.2082366943,-0.7278747559,-1.1195678711,,,,,,,,,,,,,,,,,,,,,,,,,,
27190318077417,,,,,,,,,,,,,-97.3649444580,129.9264221191,357.2871093750,,,,,,,,,,,,,,
27190348657417,,,,,,,-0.0083711143,0.3263464231,0.5909882028,,,,,,,,,,,,,,,,,,,,
27190389457417,-0.3724060059,-0.7283172607,-0.7752380371,,,,,,,,,,,,,,,,,,,,,,,,,,
27190416467417,,,,,,,,,,,,,-97.7153625488,130.6225585938,358.3031616211,,,,,,,,,,,,,,
27190444298417,,,,,,,-0.0593245764,0.2047811089,0.5765434833,,,,,,,,,,,,,,,,,,,,
27190489492417,-0.2636260986,-0.6886749268,-0.7180328369,,,,,,,,,,,,,,,,,,,,,,,,,,
27190514855417,,,,,,,,,,,,,-99.4674224854,130.6225585938,357.6257934570,,,,,,,,,,,,,,
27190539967417,,,,,,,-0.2124885634,0.2083790395,0.3021310983,,,,,,,,,,,,,,,,,,,,
27190589537417,-0.2463836670,-0.5912780762,-0.7326049805,,,,,,,,,,,,,,,,,,,,,,,,,,
27190613243417,,,,,,,,,,,,,-99.4674224854,129.9264221191,355.2549438477,,,,,,,,,,,,,,
27190635613417,,,,,,,-0.1258902879,0.3766908204,0.5465871821,,,,,,,,,,,,,,,,,,,,
27190689550417,-0.1302642822,-0.6398925781,-0.8381195068,,,,,,,,,,,,,,,,,,,,,,,,,,
27190711632417,,,,,,,,,,,,,-100.3434448242,130.1004486084,357.1177368164,,,,,,,,,,,,,,
27190731285417,,,,,,,0.0301275425,0.4473205157,0.3546427760,,,,,,,,,,,,,,,,,,,,
27190789596417,-0.0665130615,-0.4590759277,-0.7628784180,,,,,,,,,,,,,,,,,,,,,,,,,,
27190810021417,,,,,,,,,,,,,-102.4459228516,134.6253356934,355.4242858887,,,,,,,,,,,,,,
27190826959417,,,,,,,-0.0904329611,0.2430134495,0.3653574721,,,,,,,,,,,,,,,,,,,,
27190889640417,0.1546325684,-0.5639495850,-1.0169067383,,,,,,,,,,,,,,,,,,,,,,,,,,
27190908440417,,,,,,,,,,,,,-101.5699005127,131.3186950684,353.9001770020,,,,,,,,,,,,,,
27190922600417,,,,,,,-0.0003691141,0.6542934061,0.7630489155,,,,,,,,,,,,,,,,,,,,
27190989705417,-0.2220306396,-0.3468475342,-1.0261383057,,,,,,,,,,,,,,,,,,,,,,,,,,
27191006829417,,,,,,,,,,,,,-102.2707214355,133.4071044922,355.5936279297,,,,,,,,,,,,,,
27191018273417,,,,,,,0.6006102038,0.1344004192,0.9249563266,,,,,,,,,,,,,,,,,,,,
27191089746417,-0.2341003418,-0.7594757080,-0.8363494873,,,,,,,,,,,,,,,,,,,,,,,,,,
27191105248417,,,,,,,,,,,,,-102.6211242676,134.7993621826,357.2871093750,,,,,,,,,,,,,,
27191113915417,,,,,,,0.3584178069,0.0816365401,0.0044080642,,,,,,,,,,,,,,,,,,,,
27191189795417,-0.1936492920,-0.9035339355,-0.4450225830,,,,,,,,,,,,,,,,,,,,,,,,,,
27191203672417,,,,,,,,,,,,,-104.1979827881,133.9291992188,353.7308349609,,,,,,,,,,,,,,
27191209587417,,,,,,,-0.8918007700,0.8315028082,0.3533287724,,,,,,,,,,,,,,,,,,,,
27191224038208,,,,,,,,,,,,,,,,52.3943637684476,13.1323279347393,288.28125,2.75,37.1502075195312,5.0,8.0,,,,,,,
27191289839417,-0.1711883545,-0.7895660400,-0.5345611572,,,,,,,,,,,,,,,,,,,,,,,,,,
27191302049417,,,,,,,,,,,,,-105.2492218018,133.5811309814,351.6986694336,,,,,,,,,,,,,,
27191305260417,,,,,,,-0.6951423025,1.1177340358,-0.0775909320,,,,,,,,,,,,,,,,,,,,
27191389853417,0.0726013184,-0.6566314697,-0.7192993164,,,,,,,,,,,,,,,,,,,,,,,,,,
27191398857417,,,,,,,,,,,,,-105.9500427246,133.9291992188,352.7147521973,,,,,,,,,,,,,,
27191400902417,,,,,,,0.1201333326,0.6363743267,0.6477020824,,,,,,,,,,,,,,,,,,,,
27191496571417,,,,,,,-0.3634328055,0.1552809337,0.7396176253,,,,,,,,,,,,,,,,,,,,
27191497244417,,,,,,,,,,,,,-105.7748413086,134.4512939453,351.5293273926,,,,,,,,,,,,,,
27191489916417,0.2580413818,-1.0089416504,-0.6562957764,,,,,,,,,,,,,,,,,,,,,,,,,,
27191523520417,,,,,,,,,,,,,,,,,,,,,,,,0,0,0,0,0,0
27191592218417,,,,,,,0.0366911693,0.1734357028,0.4727246756,,,,,,,,,,,,,,,,,,,,
27191595666417,,,,,,,,,,,,,-105.7748413086,136.1916351318,350.5132446289,,,,,,,,,,,,,,
27191589938417,0.2012023926,-0.9868621826,-0.4914550781,,,,,,,,,,,,,,,,,,,,,,,,,,
27191687889417,,,,,,,-0.0094275903,0.2686876540,0.2933474604,,,,,,,,,,,,,,,,,,,,
27191689978417,0.1984863281,-0.9457855225,-0.5735778809,,,,,,,,,,,,,,,,,,,,,,,,,,
27191694057417,,,,,,,,,,,,,-104.8988037109,136.3656768799,351.0213012695,,,,,,,,,,,,,,
27191783562417,,,,,,,-0.1099486056,0.3712526454,0.2406325835,,,,,,,,,,,,,,,,,,,,
27191790023417,0.2851715088,-1.0639801025,-0.4931030273,,,,,,,,,,,,,,,,,,,,,,,,,,
27191792455417,,,,,,,,,,,,,-105.4244232178,138.6281127930,350.1745605469,,,,,,,,,,,,,,
27191879204417,,,,,,,-0.0457501781,0.1526230989,-0.0146668271,,,,,,,,,,,,,,,,,,,,
27191890057417,0.3962554932,-0.9637298584,-0.5409088135,,,,,,,,,,,,,,,,,,,,,,,,,,
27191890863417,,,,,,,,,,,,,-105.9500427246,138.1060180664,351.0213012695,,,,,,,,,,,,,,
27191974877417,,,,,,,0.0669936814,0.1312565575,-0.0246036137,,,,,,,,,,,,,,,,,,,,
27191989250417,,,,,,,,,,,,,-105.7748413086,137.9319763184,350.1745605469,,,,,,,,,,,,,,
27191990072417,0.4332733154,-0.9430694580,-0.5452880859,,,,,,,,,,,,,,,,,,,,,,,,,,
27192070550417,,,,,,,0.1428985662,0.0637720555,0.0314117187,,,,,,,,,,,,,,,,,,,,
27192087670417,,,,,,,,,,,,,-105.9500427246,138.1060180664,348.9891357422,,,,,,,,,,,,,,
27192090086417,0.3860321045,-0.9622192383,-0.5318908691,,,,,,,,,,,,,,,,,,,,,,,,,,
27192166191417,,,,,,,0.1969311752,0.0966154896,-0.0368887758,,,,,,,,,,,,,,,,,,,,
27192186058417,,,,,,,,,,,,,-104.3731842041,139.3242492676,351.8680419922,,,,,,,,,,,,,,
27192190131417,0.0878906250,-0.4424438477,-0.7515869141,,,,,,,,,,,,,,,,,,,,,,,,,,
27192243562125,,,,,,,,,,,,,,,,52.3943733238172,13.1322975084308,304.1015625,2.75,37.9796752929688,5.0,8.0,,,,,,,
27192261864417,,,,,,,0.0191585146,-0.2310718351,-0.3089605086,,,,,,,,,,,,,,,,,,,,
27192284477417,,,,,,,,,,,,,-104.7236022949,137.9319763184,349.4971923828,,,,,,,,,,,,,,
27192290145417,0.0976104736,-0.3279876709,-1.0216217041,,,,,,,,,,,,,,,,,,,,,,,,,,
27192357506417,,,,,,,-0.1577954904,-0.0273986013,-0.0105908590,,,,,,,,,,,,,,,,,,,,
27192380927417,,,,,,,,,,,,,-104.7236022949,139.6723175049,350.1745605469,,,,,,,,,,,,,,
27192390189417,0.2089996338,-0.5296936035,-0.8154907227,,,,,,,,,,,,,,,,,,,,,,,,,,
27192453179417,,,,,,,-0.1529567930,0.1488933418,0.1611659871,,,,,,,,,,,,,,,,,,,,
27192479312417,,,,,,,,,,,,,-106.4756622314,138.2800445557,352.2067260742,,,,,,,,,,,,,,
27192490224417,0.2537994385,-0.4994964600,-0.9208068848,,,,,,,,,,,,,,,,,,,,,,,,,,
27192548851417,,,,,,,0.1785380532,-0.2080514707,-0.0800937708,,,,,,,,,,,,,,,,,,,,
27192577721417,,,,,,,,,,,,,-105.2492218018,139.8463592529,350.6826171875,,,,,,,,,,,,,,
27192590239417,0.1049957275,-0.4889221191,-0.8824462891,,,,,,,,,,,,,,,,,,,,,,,,,,
27192644493417,,,,,,,0.1724364848,-0.2134936404,0.2234916797,,,,,,,,,,,,,,,,,,,,
27192676111417,,,,,,,,,,,,,-103.8475646973,138.4540863037,350.6826171875,,,,,,,,,,,,,,
27192690283417,0.1708984375,-0.5511779785,-0.7614440918,,,,,,,,,,,,,,,,,,,,,,,,,,
27192740166417,,,,,,,0.2810053066,-0.3406156403,0.1222915583,,,,,,,,,,,,,,,,,,,,
27192774530417,,,,,,,,,,,,,-105.5996246338,139.8463592529,351.0213012695,,,,,,,,,,,,,,
27192790328417,0.1485443115,-0.5228576660,-0.8834075928,,,,,,,,,,,,,,,,,,,,,,,,,,
27192835809417,,,,,,,0.0991361716,-0.2792870351,0.2396336317,,,,,,,,,,,,,,,,,,,,
27192872917417,,,,,,,,,,,,,-103.6723632812,140.3684539795,351.1906127930,,,,,,,,,,,,,,
27192890371417,0.0674743652,-0.6062011719,-0.7451629639,,,,,,,,,,,,,,,,,,,,,,,,,,
27192931481417,,,,,,,0.0860485990,0.1352552939,0.1044758096,,,,,,,,,,,,,,,,,,,,
27192971306417,,,,,,,,,,,,,-103.6723632812,138.9761810303,351.8680419922,,,,,,,,,,,,,,
27192990407417,0.0454406738,-0.6245117188,-0.7368316650,,,,,,,,,,,,,,,,,,,,,,,,,,
27193027153417,,,,,,,0.0047811731,0.1109299805,0.2404264548,,,,,,,,,,,,,,,,,,,,
27193069696417,,,,,,,,,,,,,-103.1467437744,141.2386322021,350.0052185059,,,,,,,,,,,,,,
27193090482417,0.0744628906,-0.5824737549,-0.8339691162,,,,,,,,,,,,,,,,,,,,,,,,,,
27193122795417,,,,,,,0.1430282621,0.0213199361,0.0345350741,,,,,,,,,,,,,,,,,,,,
27193168114417,,,,,,,,,,,,,-103.4971618652,140.8905639648,349.3278198242,,,,,,,,,,,,,,
27193190528417,0.0292358398,-0.5926971436,-0.7626495361,,,,,,,,,,,,,,,,,,,,,,,,,,
27193218468417,,,,,,,0.0637922955,-0.0119016669,-0.0225223533,,,,,,,,,,,,,,,,,,,,
27193250944917,,,,,,,,,,,,,,,,52.394372988541,13.132292646927,302.6953125,1.77999997138977,37.902587890625,5.0,8.0,,,,,,,
27193266503417,,,,,,,,,,,,,-103.3219604492,140.0203857422,349.8358764648,,,,,,,,,,,,,,
27193290572417,0.0628356934,-0.5575714111,-0.7725830078,,,,,,,,,,,,,,,,,,,,,,,,,,
27193314111417,,,,,,,-0.0958343845,0.0360938223,0.0548392805,,,,,,,,,,,,,,,,,,,,
27193362965417,,,,,,,,,,,,,-102.9715423584,138.2800445557,349.1584777832,,,,,,,,,,,,,,
27193390616417,0.0695037842,-0.6057434082,-0.7561492920,,,,,,,,,,,,,,,,,,,,,,,,,,
27193409783417,,,,,,,-0.3592268752,0.0689492406,0.0711655233,,,,,,,,,,,,,,,,,,,,
27193461357417,,,,,,,,,,,,,-105.2492218018,139.1502227783,352.0373535156,,,,,,,,,,,,,,
27193490652417,0.0055847168,-0.5260772705,-0.9152221680,,,,,,,,,,,,,,,,,,,,,,,,,,
27193505456417,,,,,,,-0.1548708069,0.0602007564,0.1022579290,,,,,,,,,,,,,,,,,,,,
27193559746417,,,,,,,,,,,,,-103.6723632812,141.7607269287,350.8519287109,,,,,,,,,,,,,,
27193590696417,0.1230773926,-0.5736846924,-0.7794036865,,,,,,,,,,,,,,,,,,,,,,,,,,
27193601097417,,,,,,,0.0914268529,0.0550994714,0.0517007452,,,,,,,,,,,,,,,,,,,,
27193658165417,,,,,,,,,,,,,-106.8260803223,140.3684539795,349.4971923828,,,,,,,,,,,,,,
27193690741417,0.0836944580,-0.5502471924,-0.8241424561,,,,,,,,,,,,,,,,,,,,,,,,,,
27193696770417,,,,,,,-0.0201766411,0.1709709472,0.0038304246,,,,,,,,,,,,,,,,,,,,
27193756555417,,,,,,,,,,,,,-106.1252441406,138.9761810303,350.8519287109,,,,,,,,,,,,,,
27193792412417,,,,,,,0.0240105278,0.0705924110,0.0591285678,,,,,,,,,,,,,,,,,,,,
27193790774417,0.0530853271,-0.5422515869,-0.9074554443,,,,,,,,,,,,,,,,,,,,,,,,,,
27193854973417,,,,,,,,,,,,,-105.5996246338,140.8905639648,351.3599853516,,,,,,,,,,,,,,
27193888085417,,,,,,,0.0172546207,0.0387649728,-0.0607919782,,,,,,,,,,,,,,,,,,,,
27193890830417,0.0881347656,-0.5900421143,-0.7352447510,,,,,,,,,,,,,,,,,,,,,,,,,,
27193953240667,,,,,,,,,,,,,-105.7748413086,141.0645904541,349.8358764648,,,,,,,,,,,,,,
27193983634667,,,,,,,0.0396113254,0.0229497907,-0.1270729977,,,,,,,,,,,,,,,,,,,,
27193990739667,0.1139373779,-0.5730285645,-0.8131408691,,,,,,,,,,,,,,,,,,,,,,,,,,
27194033834667,,,,,,,,,,,,,,,,,,,,,,,,0,0,0,0,0,0
27194051658667,,,,,,,,,,,,,-105.7748413086,141.0645904541,352.2067260742,,,,,,,,,,,,,,
27194079276667,,,,,,,0.0438830358,0.0947472821,-0.0315552631,,,,,,,,,,,,,,,,,,,,
27194090786667,0.1509857178,-0.7496643066,-0.7002563477,,,,,,,,,,,,,,,,,,,,,,,,,,
27194150047667,,,,,,,,,,,,,-107.0012817383,139.8463592529,351.6986694336,,,,,,,,,,,,,,
27194174949667,,,,,,,0.1602117764,0.0540674965,-0.0035955338,,,,,,,,,,,,,,,,,,,,
27194190831667,0.2521820068,-0.8112182617,-0.6212615967,,,,,,,,,,,,,,,,,,,,,,,,,,
27194248970458,,,,,,,,,,,,,,,,52.3943687137704,13.1322883721563,281.25,1.14999997615814,38.1972045898438,10.0,12.0,,,,,,,
27194248467667,,,,,,,,,,,,,-105.0740203857,139.6723175049,350.1745605469,,,,,,,,,,,,,,
27194270591667,,,,,,,-0.0757701288,0.0250297195,-0.0541460597,,,,,,,,,,,,,,,,,,,,
27194290876667,0.2279663086,-0.8603668213,-0.5819702148,,,,,,,,,,,,,,,,,,,,,,,,,,
27194344933667,,,,,,,,,,,,,-106.6508636475,140.1944274902,351.3599853516,,,,,,,,,,,,,,
27194366264667,,,,,,,0.1534556031,-0.0298313990,-0.0801214677,,,,,,,,,,,,,,,,,,,,
27194390921667,0.2605133057,-0.9096679688,-0.5738220215,,,,,,,,,,,,,,,,,,,,,,,,,,
27194443321667,,,,,,,,,,,,,-104.8988037109,140.1944274902,351.0213012695,,,,,,,,,,,,,,
27194461936667,,,,,,,-0.0554142570,-0.0515801040,-0.1809934877,,,,,,,,,,,,,,,,,,,,
27194490956667,0.3117065430,-0.9709930420,-0.5621948242,,,,,,,,,,,,,,,,,,,,,,,,,,
27194541709667,,,,,,,,,,,,,-105.4244232178,140.3684539795,350.8519287109,,,,,,,,,,,,,,
27194557578667,,,,,,,-0.0078238347,-0.0440247160,-0.1485862793,,,,,,,,,,,,,,,,,,,,
27194591000667,0.3275756836,-0.9111175537,-0.5534515381,,,,,,,,,,,,,,,,,,,,,,,,,,
27194640098667,,,,,,,,,,,,,-105.7748413086,139.3242492676,352.2067260742,,,,,,,,,,,,,,
27194653252667,,,,,,,-0.0695484519,0.0298473779,-0.0830722502,,,,,,,,,,,,,,,,,,,,
27194691014667,0.3261413574,-0.8540496826,-0.5449981689,,,,,,,,,,,,,,,,,,,,,,,,,,
27194738501667,,,,,,,,,,,,,-104.0227813721,137.9319763184,351.8680419922,,,,,,,,,,,,,,
27194748893667,,,,,,,0.0052488242,-0.0316490064,-0.0610026342,,,,,,,,,,,,,,,,,,,,
27194791058667,0.2487945557,-0.8676300049,-0.5853271484,,,,,,,,,,,,,,,,,,,,,,,,,,
27194836875667,,,,,,,,,,,,,-105.9500427246,138.4540863037,351.3599853516,,,,,,,,,,,,,,
27194844566667,,,,,,,-0.0969728858,0.0529969057,0.0194812897,,,,,,,,,,,,,,,,,,,,
27194891104667,0.2763214111,-0.8196411133,-0.5984497070,,,,,,,,,,,,,,,,,,,,,,,,,,
27194935295667,,,,,,,,,,,,,-107.1764831543,138.9761810303,350.5132446289,,,,,,,,,,,,,,
27194940238667,,,,,,,0.0135653436,-0.0145248806,-0.0123562685,,,,,,,,,,,,,,,,,,,,
27194991108667,0.2871398926,-0.8535156250,-0.6234741211,,,,,,,,,,,,,,,,,,,,,,,,,,
27195033684667,,,,,,,,,,,,,-105.0740203857,139.6723175049,350.5132446289,,,,,,,,,,,,,,
27195035880667,,,,,,,0.1191152061,0.0499755494,-0.1313777313,,,,,,,,,,,,,,,,,,,,
27195091123667,0.2478485107,-0.9062500000,-0.5257415771,,,,,,,,,,,,,,,,,,,,,,,,,,
27195131553667,,,,,,,0.0482112052,-0.0521087415,-0.0720744602,,,,,,,,,,,,,,,,,,,,
27195132102667,,,,,,,,,,,,,-104.3731842041,138.9761810303,350.1745605469,,,,,,,,,,,,,,
27195183359500,,,,,,,,,,,,,,,,52.3943629302572,13.1322819180909,244.3359375,0.709999978542328,37.9384155273438,10.0,12.0,,,,,,,
27195191167667,0.2518920898,-0.8689422607,-0.6519470215,,,,,,,,,,,,,,,,,,,,,,,,,,
27195227195667,,,,,,,0.0429751642,0.0400819060,-0.0646221365,,,,,,,,,,,,,,,,,,,,
27195230521667,,,,,,,,,,,,,-105.4244232178,138.6281127930,352.5454101562,,,,,,,,,,,,,,
27195291211667,0.1515960693,-0.6557769775,-0.6853027344,,,,,,,,,,,,,,,,,,,,,,,,,,
27195322861667,,,,,,,-0.0880678078,-0.0549183764,0.0260451828,,,,,,,,,,,,,,,,,,,,
27195326957667,,,,,,,,,,,,,-105.2492218018,139.1502227783,352.0373535156,,,,,,,,,,,,,,
27195391226667,0.1724090576,-0.6106567383,-0.7558441162,,,,,,,,,,,,,,,,,,,,,,,,,,
27195418510667,,,,,,,0.0308801518,0.0351071211,-0.0971340071,,,,,,,,,,,,,,,,,,,,
27195425346667,,,,,,,,,,,,,-105.7748413086,138.2800445557,352.2067260742,,,,,,,,,,,,,,
27195491262667,0.1609802246,-0.8243865967,-0.6467132568,,,,,,,,,,,,,,,,,,,,,,,,,,
27195514190667,,,,,,,0.0884896525,-0.1099952109,0.0064432519,,,,,,,,,,,,,,,,,,,,
27195523734667,,,,,,,,,,,,,-104.7236022949,138.2800445557,351.5293273926,,,,,,,,,,,,,,
27195591306667,0.2656707764,-0.8086853027,-0.6161346436,,,,,,,,,,,,,,,,,,,,,,,,,,
27195609855667,,,,,,,0.0783326224,0.1275028319,-0.1010714907,,,,,,,,,,,,,,,,,,,,
27195622154667,,,,,,,,,,,,,-105.4244232178,136.8877716064,351.1906127930,,,,,,,,,,,,,,
27195691351667,0.2061920166,-0.7879638672,-0.7021789551,,,,,,,,,,,,,,,,,,,,,,,,,,
27195705492667,,,,,,,0.0652889920,-0.0302042415,-0.0749325646,,,,,,,,,,,,,,,,,,,,
27195720574667,,,,,,,,,,,,,-103.6723632812,139.3242492676,353.5614624023,,,,,,,,,,,,,,
27195791365667,0.1959228516,-0.7154388428,-0.7426147461,,,,,,,,,,,,,,,,,,,,,,,,,,
27195801170667,,,,,,,0.0332546262,0.0085154576,-0.0566214679,,,,,,,,,,,,,,,,,,,,
27195818962667,,,,,,,,,,,,,-105.0740203857,138.2800445557,353.9001770020,,,,,,,,,,,,,,
27195891409667,0.2039031982,-0.7660675049,-0.6459808350,,,,,,,,,,,,,,,,,,,,,,,,,,
27195896812667,,,,,,,0.0035065842,0.0412763337,0.0069196915,,,,,,,,,,,,,,,,,,,,
27195917381667,,,,,,,,,,,,,-104.8988037109,139.1502227783,352.0373535156,,,,,,,,,,,,,,
27195992484667,,,,,,,0.0315571273,0.0862611193,-0.0038184404,,,,,,,,,,,,,,,,,,,,
27195991444667,0.2562866211,-0.7748718262,-0.5669708252,,,,,,,,,,,,,,,,,,,,,,,,,,
27196015800667,,,,,,,,,,,,,-104.3731842041,140.3684539795,352.5454101562,,,,,,,,,,,,,,
27196088155667,,,,,,,-0.0467323519,0.0192839495,0.0361782445,,,,,,,,,,,,,,,,,,,,
27196091488667,0.2548065186,-0.7810516357,-0.7272033691,,,,,,,,,,,,,,,,,,,,,,,,,,
27196114188667,,,,,,,,,,,,,-106.1252441406,137.2358398438,352.2067260742,,,,,,,,,,,,,,
27196176904250,,,,,,,,,,,,,,,,52.3943573562916,13.1322841812047,220.078125,0.529999971389771,38.8648681640625,10.0,12.0,,,,,,,
27196183799667,,,,,,,0.0570837927,0.0973678326,0.0323414283,,,,,,,,,,,,,,,,,,,,
27196191502667,0.0874328613,-0.7291412354,-0.6011047363,,,,,,,,,,,,,,,,,,,,,,,,,,
27196212608667,,,,,,,,,,,,,-103.4971618652,138.4540863037,353.0534667969,,,,,,,,,,,,,,
27196279473667,,,,,,,-0.0240459478,-0.0245570084,-0.0886403874,,,,,,,,,,,,,,,,,,,,
27196291547667,0.3149414062,-0.8171234131,-0.6702423096,,,,,,,,,,,,,,,,,,,,,,,,,,
27196311027667,,,,,,,,,,,,,-104.8988037109,139.1502227783,354.4082031250,,,,,,,,,,,,,,
27196375114667,,,,,,,0.0590412161,-0.0071559138,-0.0627137152,,,,,,,,,,,,,,,,,,,,
27196391561667,0.1266479492,-0.8014831543,-0.5976104736,,,,,,,,,,,,,,,,,,,,,,,,,,
27196407493667,,,,,,,,,,,,,-104.0227813721,137.5839080811,350.8519287109,,,,,,,,,,,,,,
27196470789667,,,,,,,0.0087631316,-0.1138954103,0.0467824193,,,,,,,,,,,,,,,,,,,,
27196491597667,0.2347869873,-0.8200225830,-0.6975402832,,,,,,,,,,,,,,,,,,,,,,,,,,
27196505910667,,,,,,,,,,,,,-104.1979827881,140.1944274902,351.6986694336,,,,,,,,,,,,,,
27196566459667,,,,,,,0.0739629077,-0.1016688378,-0.0413061611,,,,,,,,,,,,,,,,,,,,
27196591611667,0.1917114258,-0.8170166016,-0.6733856201,,,,,,,,,,,,,,,,,,,,,,,,,,
27196604331667,,,,,,,,,,,,,-103.4971618652,138.1060180664,353.0534667969,,,,,,,,,,,,,,
27196662101667,,,,,,,0.0158356885,0.1684356179,-0.1203581034,,,,,,,,,,,,,,,,,,,,
27196691656667,0.1723785400,-0.7361145020,-0.5271759033,,,,,,,,,,,,,,,,,,,,,,,,,,
27196702750667,,,,,,,,,,,,,-104.3731842041,138.2800445557,352.2067260742,,,,,,,,,,,,,,
27196757775667,,,,,,,-0.1113222641,-0.0937738967,0.0567511639,,,,,,,,,,,,,,,,,,,,
27196791670667,0.3260955811,-0.8705596924,-0.7079925537,,,,,,,,,,,,,,,,,,,,,,,,,,
27196801170667,,,,,,,,,,,,,-104.7236022949,139.6723175049,351.5293273926,,,,,,,,,,,,,,
27196853416667,,,,,,,0.0359233799,0.2300172234,-0.2956103484,,,,,,,,,,,,,,,,,,,,
27196891684667,0.0915985107,-0.6705627441,-0.7813873291,,,,,,,,,,,,,,,,,,,,,,,,,,
27196899559667,,,,,,,,,,,,,-103.4971618652,135.6695404053,350.3439025879,,,,,,,,,,,,,,
27196949088667,,,,,,,0.2981627220,-0.0499182915,-0.1239983783,,,,,,,,,,,,,,,,,,,,
27196997978667,,,,,,,,,,,,,-102.9715423584,137.9319763184,350.5132446289,,,,,,,,,,,,,,
27196991750667,0.0704803467,-0.5090332031,-0.6534271240,,,,,,,,,,,,,,,,,,,,,,,,,,
27197044761667,,,,,,,-0.1532034017,-0.1955412715,0.2050367723,,,,,,,,,,,,,,,,,,,,
27197096397667,,,,,,,,,,,,,-102.4459228516,139.4982910156,351.3599853516,,,,,,,,,,,,,,
27197091764667,0.1656951904,-0.4814300537,-0.9244079590,,,,,,,,,,,,,,,,,,,,,,,,,,
27197140403667,,,,,,,0.0419525103,0.0055020908,0.2180561679,,,,,,,,,,,,,,,,,,,,
27197166652167,,,,,,,,,,,,,,,,52.3943485972028,13.1323069799814,108.6328125,1.70000004768372,38.2450561523438,10.0,12.0,,,,,,,
27197194816667,,,,,,,,,,,,,-102.0955047607,138.8021545410,350.6826171875,,,,,,,,,,,,,,
27197191785667,-0.0899353027,-0.5389556885,-0.8768615723,,,,,,,,,,,,,,,,,,,,,,,,,,
27197236076667,,,,,,,-0.0267469258,0.0567000312,-0.0935754912,,,,,,,,,,,,,,,,,,,,
27197293235667,,,,,,,,,,,,,-102.2707214355,138.6281127930,352.2067260742,,,,,,,,,,,,,,
27197291821667,0.1185913086,-0.5262145996,-0.8517303467,,,,,,,,,,,,,,,,,,,,,,,,,,
27197331719667,,,,,,,0.1234223365,0.1217543987,-0.0446385746,,,,,,,,,,,,,,,,,,,,
27197390220667,,,,,,,,,,,,,-103.8475646973,139.8463592529,352.7147521973,,,,,,,,,,,,,,
27197391866667,0.0793457031,-0.5569915771,-0.8672637939,,,,,,,,,,,,,,,,,,,,,,,,,,
27197427390667,,,,,,,-0.0449674750,0.1225866366,0.1199570313,,,,,,,,,,,,,,,,,,,,
27197488610667,,,,,,,,,,,,,-102.2707214355,139.6723175049,351.5293273926,,,,,,,,,,,,,,
27197491903667,0.1069335938,-0.5560455322,-0.8281402588,,,,,,,,,,,,,,,,,,,,,,,,,,
27197523064667,,,,,,,-0.0444572133,0.0811451868,0.0277525354,,,,,,,,,,,,,,,,,,,,
27197587013667,,,,,,,,,,,,,-103.1467437744,138.8021545410,351.6986694336,,,,,,,,,,,,,,
27197591946667,0.0409393311,-0.5270385742,-0.8867797852,,,,,,,,,,,,,,,,,,,,,,,,,,
27197618705667,,,,,,,-0.0000463390,0.0048682585,0.0074541879,,,,,,,,,,,,,,,,,,,,
27197685417667,,,,,,,,,,,,,-103.1467437744,141.2386322021,353.0534667969,,,,,,,,,,,,,,
27197691960667,0.0667266846,-0.4707336426,-0.7991180420,,,,,,,,,,,,,,,,,,,,,,,,,,
27197714378667,,,,,,,0.0244270462,-0.0543564494,0.0596849021,,,,,,,,,,,,,,,,,,,,
27197783836667,,,,,,,,,,,,,-103.1467437744,140.8905639648,352.0373535156,,,,,,,,,,,,,,
27197792019667,0.0218963623,-0.5442962646,-0.9328918457,,,,,,,,,,,,,,,,,,,,,,,,,,
27197810021667,,,,,,,0.0910524124,-0.0434414837,-0.0772977180,,,,,,,,,,,,,,,,,,,,
27197882247667,,,,,,,,,,,,,-102.4459228516,138.8021545410,354.4082031250,,,,,,,,,,,,,,
27197892050667,0.0405731201,-0.5389862061,-0.8105468750,,,,,,,,,,,,,,,,,,,,,,,,,,
27197905692667,,,,,,,0.0904532012,0.0234770966,0.0157917463,,,,,,,,,,,,,,,,,,,,
27197980667667,,,,,,,,,,,,,-102.2707214355,140.7165222168,352.5454101562,,,,,,,,,,,,,,
27197992085667,0.0389709473,-0.5418090820,-0.8419494629,,,,,,,,,,,,,,,,,,,,,,,,,,
27198001359667,,,,,,,-0.0395788349,0.0714885647,0.0404243885,,,,,,,,,,,,,,,,,,,,
27198035671583,,,,,,,,,,,,,,,,52.394343819518,13.1323629710946,93.515625,1.70000004768372,37.8598022460938,10.0,12.0,,,,,,,
27198079093667,,,,,,,,,,,,,-101.7451019287,139.4982910156,353.3921508789,,,,,,,,,,,,,,
27198097008667,,,,,,,-0.0393537977,0.0338301353,0.0158876201,,,,,,,,,,,,,,,,,,,,
27198092108667,0.0744171143,-0.5317077637,-0.8858947754,,,,,,,,,,,,,,,,,,,,,,,,,,
27198177482667,,,,,,,,,,,,,-103.3219604492,142.1087951660,353.5614624023,,,,,,,,,,,,,,
27198192680667,,,,,,,0.0023249396,0.0896872760,-0.0439442885,,,,,,,,,,,,,,,,,,,,
27198192143667,0.0293273926,-0.4602813721,-0.8206939697,,,,,,,,,,,,,,,,,,,,,,,,,,
27198275901667,,,,,,,,,,,,,-101.3946838379,140.8905639648,354.0695190430,,,,,,,,,,,,,,
27198288323667,,,,,,,-0.0173928388,0.0400206533,0.0295515007,,,,,,,,,,,,,,,,,,,,
27198292188667,0.0319519043,-0.5002593994,-0.8739776611,,,,,,,,,,,,,,,,,,,,,,,,,,
27198372367667,,,,,,,,,,,,,-103.3219604492,138.9761810303,352.2067260742,,,,,,,,,,,,,,
27198383991667,,,,,,,-0.0404198611,0.0640157347,-0.0485076150,,,,,,,,,,,,,,,,,,,,
27198392234667,0.1048889160,-0.4815216064,-0.8870391846,,,,,,,,,,,,,,,,,,,,,,,,,,
27198470784667,,,,,,,,,,,,,-101.7451019287,140.1944274902,354.0695190430,,,,,,,,,,,,,,
27198479667667,,,,,,,-0.0159107896,0.0338354616,-0.0293048920,,,,,,,,,,,,,,,,,,,,
27198492269667,0.0200653076,-0.4541320801,-0.8836822510,,,,,,,,,,,,,,,,,,,,,,,,,,
27198569203667,,,,,,,,,,,,,-103.1467437744,140.1944274902,352.3760375977,,,,,,,,,,,,,,
27198575309667,,,,,,,-0.0047034088,-0.0388741624,-0.0157310262,,,,,,,,,,,,,,,,,,,,
27198592312667,0.0374603271,-0.4222869873,-0.9120483398,,,,,,,,,,,,,,,,,,,,,,,,,,
27198667613667,,,,,,,,,,,,,-101.9203033447,139.6723175049,352.8840942383,,,,,,,,,,,,,,
27198670983667,,,,,,,-0.0641534201,0.0847497754,0.0515657229,,,,,,,,,,,,,,,,,,,,
27198692358667,-0.0069427490,-0.4748535156,-0.9027862549,,,,,,,,,,,,,,,,,,,,,,,,,,
27198766013667,,,,,,,,,,,,,-102.0955047607,138.8021545410,354.4082031250,,,,,,,,,,,,,,
27198766626667,,,,,,,0.0118326910,0.0462857397,0.0632663212,,,,,,,,,,,,,,,,,,,,
27198792401667,0.0561523438,-0.4510955811,-0.9172363281,,,,,,,,,,,,,,,,,,,,,,,,,,
27198862296667,,,,,,,-0.0367795862,0.0846352594,-0.0575921902,,,,,,,,,,,,,,,,,,,,
27198864433667,,,,,,,,,,,,,-104.5484008789,141.5867004395,352.3760375977,,,,,,,,,,,,,,
27198892447667,-0.0130920410,-0.4802398682,-0.9587097168,,,,,,,,,,,,,,,,,,,,,,,,,,
27198957810417,,,,,,,-0.0443336427,0.1295188449,-0.0431791623,,,,,,,,,,,,,,,,,,,,
27198962662417,,,,,,,,,,,,,-101.9203033447,140.7165222168,352.2067260742,,,,,,,,,,,,,,
27198992323417,-0.0320892334,-0.3571166992,-0.7639617920,,,,,,,,,,,,,,,,,,,,,,,,,,
27199032037125,,,,,,,,,,,,,,,,52.3943482619267,13.1324446946505,87.890625,3.36999988555908,37.8910522460938,10.0,12.0,,,,,,,
27199053449417,,,,,,,0.0508298915,-0.1405882739,-0.0406981615,,,,,,,,,,,,,,,,,,,,
27199061081417,,,,,,,,,,,,,-102.7963409424,141.5867004395,353.3921508789,,,,,,,,,,,,,,
27199092368417,0.0878448486,-0.4665222168,-0.9883880615,,,,,,,,,,,,,,,,,,,,,,,,,,
27199149126417,,,,,,,-0.0231005256,0.0325105390,-0.0668954108,,,,,,,,,,,,,,,,,,,,
27199159502417,,,,,,,,,,,,,-102.9715423584,138.9761810303,352.8840942383,,,,,,,,,,,,,,
27199192412417,-0.0973815918,-0.4416809082,-0.9201202393,,,,,,,,,,,,,,,,,,,,,,,,,,
27199244767417,,,,,,,0.0542366072,-0.0689851933,-0.0342178916,,,,,,,,,,,,,,,,,,,,
27199257889417,,,,,,,,,,,,,-102.7963409424,140.1944274902,354.0695190430,,,,,,,,,,,,,,
27199292425417,-0.0264434814,-0.3831329346,-0.8840484619,,,,,,,,,,,,,,,,,,,,,,,,,,
27199340439417,,,,,,,0.0390941395,0.0450194066,-0.0170301162,,,,,,,,,,,,,,,,,,,,
27199354050417,,,,,,,,,,,,,-102.6211242676,140.0203857422,353.9001770020,,,,,,,,,,,,,,
27199392471417,0.0117187500,-0.4587097168,-0.9144287109,,,,,,,,,,,,,,,,,,,,,,,,,,
27199436112417,,,,,,,0.0420129641,-0.0072890719,-0.0902699757,,,,,,,,,,,,,,,,,,,,
27199452439417,,,,,,,,,,,,,-104.5484008789,140.8905639648,353.0534667969,,,,,,,,,,,,,,
27199492507417,-0.0338592529,-0.4203033447,-0.8795776367,,,,,,,,,,,,,,,,,,,,,,,,,,
27199531754417,,,,,,,-0.0168780497,-0.0595496136,-0.0154082511,,,,,,,,,,,,,,,,,,,,
27199550858417,,,,,,,,,,,,,-103.4971618652,139.8463592529,354.7468872070,,,,,,,,,,,,,,
27199592520417,-0.0339202881,-0.4911193848,-0.9848022461,,,,,,,,,,,,,,,,,,,,,,,,,,
27199627427417,,,,,,,0.3323332093,0.0635576710,0.1125731509,,,,,,,,,,,,,,,,,,,,
27199649277417,,,,,,,,,,,,,-102.2707214355,138.9761810303,353.9001770020,,,,,,,,,,,,,,
27199692565417,0.1394653320,-0.5572814941,-0.6936645508,,,,,,,,,,,,,,,,,,,,,,,,,,
27199723070417,,,,,,,-0.1597909970,-0.0821412091,-0.0775155646,,,,,,,,,,,,,,,,,,,,
27199747696417,,,,,,,,,,,,,-101.5699005127,138.9761810303,351.5293273926,,,,,,,,,,,,,,
27199792609417,0.0760498047,-0.4964294434,-0.7911987305,,,,,,,,,,,,,,,,,,,,,,,,,,
27199818741417,,,,,,,-0.1471369871,0.0757709278,-0.0070901338,,,,,,,,,,,,,,,,,,,,
27199846116417,,,,,,,,,,,,,-100.8690643311,138.2800445557,351.8680419922,,,,,,,,,,,,,,
27199892623417,0.1361541748,-0.5446929932,-0.9301910400,,,,,,,,,,,,,,,,,,,,,,,,,,
27199914414417,,,,,,,-0.1039993700,0.2726317955,0.0614588337,,,,,,,,,,,,,,,,,,,,
27199944536417,,,,,,,,,,,,,-102.0955047607,138.1060180664,351.3599853516,,,,,,,,,,,,,,
27199992659417,0.2838134766,-0.4546813965,-0.8192901611,,,,,,,,,,,,,,,,,,,,,,,,,,
27200010056417,,,,,,,-0.0979686418,0.1697738563,0.1695379003,,,,,,,,,,,,,,,,,,,,
27200037491625,,,,,,,,,,,,,,,,52.3943585297581,13.1325319502625,80.859375,4.5,37.3397216796875,10.0,12.0,,,,,,,
27200042954417,,,,,,,,,,,,,-100.5186614990,138.6281127930,351.5293273926,,,,,,,,,,,,,,
27200092673417,0.2985992432,-0.3891448975,-0.9508361816,,,,,,,,,,,,,,,,,,,,,,,,,,
27200105729417,,,,,,,-0.3546345202,0.4427585207,0.1397307361,,,,,,,,,,,,,,,,,,,,
27200141343417,,,,,,,,,,,,,-102.6211242676,140.0203857422,351.1906127930,,,,,,,,,,,,,,
27200192717417,0.2331695557,-0.3500366211,-0.9150848389,,,,,,,,,,,,,,,,,,,,,,,,,,
27200201371417,,,,,,,-0.1958563234,0.2867838336,0.0589195096,,,,,,,,,,,,,,,,,,,,
27200239762417,,,,,,,,,,,,,-102.0955047607,140.1944274902,350.3439025879,,,,,,,,,,,,,,
27200292732417,0.3975067139,-0.3775329590,-0.8803710938,,,,,,,,,,,,,,,,,,,,,,,,,,
27200297043417,,,,,,,-0.0720725959,0.3877615810,-0.0581570466,,,,,,,,,,,,,,,,,,,,
27200336258417,,,,,,,,,,,,,-101.3946838379,140.8905639648,350.6826171875,,,,,,,,,,,,,,
27200392716417,,,,,,,-0.0549266322,0.4248114781,0.2134156097,,,,,,,,,,,,,,,,,,,,
27200392745417,0.4648132324,-0.3895721436,-0.8086853027,,,,,,,,,,,,,,,,,,,,,,,,,,
27200434679417,,,,,,,,,,,,,-101.0442810059,142.2828369141,349.3278198242,,,,,,,,,,,,,,
27200488358417,,,,,,,-0.2464641073,0.5368919442,0.2573018414,,,,,,,,,,,,,,,,,,,,
27200492781417,0.6322326660,-0.4919891357,-0.7976226807,,,,,,,,,,,,,,,,,,,,,,,,,,
27200533097417,,,,,,,,,,,,,-102.7963409424,141.5867004395,347.6343688965,,,,,,,,,,,,,,
27200584031417,,,,,,,-0.1195652803,0.8047313813,0.4438038114,,,,,,,,,,,,,,,,,,,,
27200592825417,0.8368225098,-0.2710266113,-0.6538391113,,,,,,,,,,,,,,,,,,,,,,,,,,
27200631517417,,,,,,,,,,,,,-98.7666015625,142.1087951660,348.4810791016,,,,,,,,,,,,,,
27200679673417,,,,,,,-0.1853885024,0.4397917593,0.6762128198,,,,,,,,,,,,,,,,,,,,
27200692870417,0.8760986328,-0.1753692627,-0.8543090820,,,,,,,,,,,,,,,,,,,,,,,,,,
27200729935417,,,,,,,,,,,,,-99.1170043945,143.8491363525,347.4650268555,,,,,,,,,,,,,,
27200775340417,,,,,,,-0.4808411917,0.5682959398,0.6698934048,,,,,,,,,,,,,,,,,,,,
27200792914417,0.5309143066,-0.0030212402,-0.7816009521,,,,,,,,,,,,,,,,,,,,,,,,,,
27200828354417,,,,,,,,,,,,,-99.4674224854,145.2414093018,344.7554931641,,,,,,,,,,,,,,
27200871018417,,,,,,,-0.2566245995,0.6467673129,1.1687215865,,,,,,,,,,,,,,,,,,,,
27200892929417,0.8753204346,-0.0349273682,-0.8654632568,,,,,,,,,,,,,,,,,,,,,,,,,,
27200926774417,,,,,,,,,,,,,-98.9418029785,147.8519287109,343.5700683594,,,,,,,,,,,,,,
27200966660417,,,,,,,-0.2385308167,0.7129428712,0.8767741499,,,,,,,,,,,,,,,,,,,,
27200992963417,0.9360809326,-0.0636291504,-0.9898529053,,,,,,,,,,,,,,,,,,,,,,,,,,
27201025193417,,,,,,,,,,,,,-99.8178405762,149.0701599121,342.3846435547,,,,,,,,,,,,,,
27201062333417,,,,,,,-0.2398224499,0.6996523658,0.9045597085,,,,,,,,,,,,,,,,,,,,
27201085908583,,,,,,,,,,,,,,,,52.3943962902319,13.1327448506031,77.34375,5.76999998092651,36.9722900390625,10.0,8.0,,,,,,,
27201093009417,0.8123931885,-0.1347351074,-0.7952423096,,,,,,,,,,,,,,,,,,,,,,,,,,
27201123612417,,,,,,,,,,,,,-97.7153625488,149.4182281494,342.3846435547,,,,,,,,,,,,,,
27201157999417,,,,,,,-0.5601911416,0.9021458193,0.9436170964,,,,,,,,,,,,,,,,,,,,
27201193052417,1.0225219727,-0.1065063477,-0.8868560791,,,,,,,,,,,,,,,,,,,,,,,,,,
27201222016417,,,,,,,,,,,,,-97.5401611328,151.6806793213,342.5539550781,,,,,,,,,,,,,,
27201253647417,,,,,,,-0.2560216598,0.4968513172,0.8398081424,,,,,,,,,,,,,,,,,,,,
27201293067417,0.8597869873,-0.1635589600,-0.7869567871,,,,,,,,,,,,,,,,,,,,,,,,,,
27201320420417,,,,,,,,,,,,,-98.7666015625,153.9431152344,342.3846435547,,,,,,,,,,,,,,
27201349320417,,,,,,,-0.2521635383,0.5531239110,1.0509299715,,,,,,,,,,,,,,,,,,,,
27201393112417,0.9215087891,-0.1709747314,-0.7052764893,,,,,,,,,,,,,,,,,,,,,,,,,,
27201416886417,,,,,,,,,,,,,-97.0145416260,154.9873199463,342.3846435547,,,,,,,,,,,,,,
27201444962417,,,,,,,-0.1406812183,0.5747168211,0.7105414988,,,,,,,,,,,,,,,,,,,,
27201493146417,0.7846679688,-0.2468719482,-0.8123474121,,,,,,,,,,,,,,,,,,,,,,,,,,
27201515276417,,,,,,,,,,,,,-97.8905639648,155.5094299316,340.1831054688,,,,,,,,,,,,,,
27201540631417,,,,,,,-0.2752898966,0.2907333015,0.9318744202,,,,,,,,,,,,,,,,,,,,
27201565719417,,,,,,,,,,,,,,,,,,,,,,,,0,0,0,0,0,0
27201593160417,0.8922119141,-0.2055816650,-0.7157135010,,,,,,,,,,,,,,,,,,,,,,,,,,
27201613694417,,,,,,,,,,,,,-95.4376831055,155.8574981689,338.1509704590,,,,,,,,,,,,,,
27201636277417,,,,,,,-1.6475294547,1.0894153124,0.5316140915,,,,,,,,,,,,,,,,,,,,
27201693205417,0.9101257324,-0.2858428955,-0.8090972900,,,,,,,,,,,,,,,,,,,,,,,,,,
27201712082417,,,,,,,,,,,,,-92.6343841553,157.9458923340,342.2152709961,,,,,,,,,,,,,,
27201731939417,,,,,,,-0.3554787423,-0.1368505274,0.8316250473,,,,,,,,,,,,,,,,,,,,
27201793250417,0.6002655029,-0.3984832764,-1.1335754395,,,,,,,,,,,,,,,,,,,,,,,,,,
27201810503417,,,,,,,,,,,,,-95.9633026123,159.5122070312,341.3685302734,,,,,,,,,,,,,,
27201827622417,,,,,,,-0.0344743540,0.1998515977,0.4900341574,,,,,,,,,,,,,,,,,,,,
27201893295417,0.8165130615,-0.2111511230,-0.8400421143,,,,,,,,,,,,,,,,,,,,,,,,,,
27201908890417,,,,,,,,,,,,,-92.9848022461,158.9900970459,340.5218200684,,,,,,,,,,,,,,
27201923259417,,,,,,,-0.2043464810,0.2698394711,0.6611547743,,,,,,,,,,,,,,,,,,,,
27201993329417,0.8358001709,-0.2129974365,-0.7851104736,,,,,,,,,,,,,,,,,,,,,,,,,,
27202007280417,,,,,,,,,,,,,-92.6343841553,158.9900970459,338.8283691406,,,,,,,,,,,,,,
27202018937417,,,,,,,-0.3841668462,0.4924477803,0.7435481848,,,,,,,,,,,,,,,,,,,,
27202082994208,,,,,,,,,,,,,,,,52.3944154009711,13.132805619401,67.1484375,5.76999998092651,37.0697631835938,10.0,8.0,,,,,,,
27202093375417,0.7416229248,-0.1543884277,-0.7295379639,,,,,,,,,,,,,,,,,,,,,,,,,,
27202105668417,,,,,,,,,,,,,-92.8096008301,161.6006164551,341.0298461914,,,,,,,,,,,,,,
27202114579417,,,,,,,-0.2704381497,0.2901287639,0.6396659938,,,,,,,,,,,,,,,,,,,,
27202193418417,0.9585266113,-0.1114349365,-0.7775878906,,,,,,,,,,,,,,,,,,,,,,,,,,
27202204087417,,,,,,,,,,,,,-89.1302642822,159.6862335205,340.5218200684,,,,,,,,,,,,,,
27202210251417,,,,,,,-0.2651959835,0.4129257902,0.7557625068,,,,,,,,,,,,,,,,,,,,
27202293451417,1.0039672852,-0.0370178223,-0.8753356934,,,,,,,,,,,,,,,,,,,,,,,,,,
27202302506417,,,,,,,,,,,,,-88.6046447754,162.9928894043,339.6751098633,,,,,,,,,,,,,,
27202305927417,,,,,,,-0.4828284425,0.4941735087,0.6170448372,,,,,,,,,,,,,,,,,,,,
27202393508417,0.9169006348,0.0245056152,-0.7958068848,,,,,,,,,,,,,,,,,,,,,,,,,,
27202398972417,,,,,,,,,,,,,-86.1517639160,164.3851623535,340.0137939453,,,,,,,,,,,,,,
27202401566417,,,,,,,-0.3431349907,0.4057512342,0.9629425912,,,,,,,,,,,,,,,,,,,,
27202497239417,,,,,,,-0.2118709763,0.4182893966,0.8860113241,,,,,,,,,,,,,,,,,,,,
27202497355417,,,,,,,,,,,,,-83.1732635498,160.0343017578,340.1831054688,,,,,,,,,,,,,,
27202493544417,0.9843750000,-0.0458374023,-0.7779998779,,,,,,,,,,,,,,,,,,,,,,,,,,
27202592881417,,,,,,,-0.1669090939,0.4513591994,0.9418817806,,,,,,,,,,,,,,,,,,,,
27202595780417,,,,,,,,,,,,,-82.6476440430,164.0370941162,341.7072448730,,,,,,,,,,,,,,
27202593588417,1.0819091797,-0.0810546875,-0.9669647217,,,,,,,,,,,,,,,,,,,,,,,,,,
27202688545417,,,,,,,-0.1515453176,0.6357857681,0.9253840303,,,,,,,,,,,,,,,,,,,,
27202694199417,,,,,,,,,,,,,-81.4212036133,161.4265747070,341.5379028320,,,,,,,,,,,,,,
27202693602417,1.1396331787,-0.0059661865,-0.9661712646,,,,,,,,,,,,,,,,,,,,,,,,,,
27202784226417,,,,,,,-0.1795316786,0.6234633217,0.8930087799,,,,,,,,,,,,,,,,,,,,
27202792619417,,,,,,,,,,,,,-79.8443450928,157.0757293701,340.3524780273,,,,,,,,,,,,,,
27202793647417,1.0382690430,-0.0378723145,-1.0024261475,,,,,,,,,,,,,,,,,,,,,,,,,,
27202879869417,,,,,,,-0.2918198712,0.8184080451,0.9493388980,,,,,,,,,,,,,,,,,,,,
27202891007417,,,,,,,,,,,,,-76.8658447266,159.3381652832,345.6022033691,,,,,,,,,,,,,,
27202893692417,1.0955810547,-0.1159820557,-0.7983398438,,,,,,,,,,,,,,,,,,,,,,,,,,
27202975541417,,,,,,,-0.4382367395,0.6080116611,1.0015765365,,,,,,,,,,,,,,,,,,,,
27202989427417,,,,,,,,,,,,,-71.9600830078,158.9900970459,344.2474365234,,,,,,,,,,,,,,
27202993758417,1.1651763916,-0.1205444336,-0.8219451904,,,,,,,,,,,,,,,,,,,,,,,,,,
27203071184417,,,,,,,-0.5390666815,0.5599296192,0.8469547351,,,,,,,,,,,,,,,,,,,,
27203087845417,,,,,,,,,,,,,-73.0113220215,156.2055511475,344.9248046875,,,,,,,,,,,,,,
27203093802417,1.0076599121,-0.0453643799,-0.7170410156,,,,,,,,,,,,,,,,,,,,,,,,,,
27203143200583,,,,,,,,,,,,,,,,52.3944522394355,13.1328456010792,54.84375,4.40999984741211,37.027099609375,10.0,8.0,,,,,,,
27203166864417,,,,,,,-0.4677192643,0.4813463933,0.8278928933,,,,,,,,,,,,,,,,,,,,
27203186265417,,,,,,,,,,,,,-73.3617248535,160.3823699951,348.3117675781,,,,,,,,,,,,,,
27203193846417,1.1235046387,-0.0350799561,-0.7153472900,,,,,,,,,,,,,,,,,,,,,,,,,,
27203262528417,,,,,,,-0.3978648153,0.4598147359,0.8280726567,,,,,,,,,,,,,,,,,,,,
27203284684417,,,,,,,,,,,,,-71.0840454102,155.3353881836,346.7876281738,,,,,,,,,,,,,,
27203293890417,0.8726043701,-0.0101623535,-0.6220550537,,,,,,,,,,,,,,,,,,,,,,,,,,
27203358170417,,,,,,,-0.1930522811,0.4060202135,0.7833163704,,,,,,,,,,,,,,,,,,,,
27203381119417,,,,,,,,,,,,,-71.4344635010,156.3795928955,347.8037109375,,,,,,,,,,,,,,
27203393935417,1.1388854980,-0.1576690674,-0.7556762695,,,,,,,,,,,,,,,,,,,,,,,,,,
27203453843417,,,,,,,-0.1938483000,0.3403972611,0.7315964504,,,,,,,,,,,,,,,,,,,,
27203479540417,,,,,,,,,,,,,-70.2080230713,157.9458923340,351.6986694336,,,,,,,,,,,,,,
27203494001417,1.0103759766,-0.1725311279,-0.7291870117,,,,,,,,,,,,,,,,,,,,,,,,,,
27203549486417,,,,,,,-0.2672942881,0.4599585466,0.6296735471,,,,,,,,,,,,,,,,,,,,
27203577928417,,,,,,,,,,,,,-70.2080230713,150.2884063721,346.9569702148,,,,,,,,,,,,,,
27203594046417,0.7878265381,-0.1242980957,-0.5838623047,,,,,,,,,,,,,,,,,,,,,,,,,,
27203645157417,,,,,,,-0.1975948350,0.0830453523,0.6600873794,,,,,,,,,,,,,,,,,,,,
27203676316417,,,,,,,,,,,,,-69.3319854736,152.2027740479,351.1906127930,,,,,,,,,,,,,,
27203694091417,1.0459747314,-0.3957519531,-0.7338104248,,,,,,,,,,,,,,,,,,,,,,,,,,
27203740830417,,,,,,,-0.0960522310,0.2276296994,0.5574701899,,,,,,,,,,,,,,,,,,,,
27203774705417,,,,,,,,,,,,,-68.1055450439,151.6806793213,353.3921508789,,,,,,,,,,,,,,
27203794135417,0.7378082275,-0.3715057373,-0.5852508545,,,,,,,,,,,,,,,,,,,,,,,,,,
27203836472417,,,,,,,0.1718066472,-0.1296053976,0.3100646552,,,,,,,,,,,,,,,,,,,,
27203873125417,,,,,,,,,,,,,-70.7336425781,144.8933410645,347.8037109375,,,,,,,,,,,,,,
27203894179417,0.7458953857,-0.4719543457,-0.5910644531,,,,,,,,,,,,,,,,,,,,,,,,,,
27203932015792,,,,,,,0.2155852871,-0.2982327631,0.2196218404,,,,,,,,,,,,,,,,,,,,
27203971382792,,,,,,,,,,,,,-71.4344635010,149.0701599121,352.5454101562,,,,,,,,,,,,,,
27203994085792,0.1377258301,-0.6891784668,-0.7186584473,,,,,,,,,,,,,,,,,,,,,,,,,,
27204027657792,,,,,,,0.0931041117,-0.5125160307,0.1075818543,,,,,,,,,,,,,,,,,,,,
27204069798792,,,,,,,,,,,,,-72.3104858398,147.1557922363,350.3439025879,,,,,,,,,,,,,,
27204076514792,,,,,,,,,,,,,,,,,,,,,,,,0,0,0,1,0,0
27204094129792,0.2631225586,-0.7221374512,-0.7724456787,,,,,,,,,,,,,,,,,,,,,,,,,,
27204123329792,,,,,,,0.0592859606,-0.1882801627,0.3311941753,,,,,,,,,,,,,,,,,,,,
27204168213792,,,,,,,,,,,,,-72.4857025146,144.5452728271,345.7715454102,,,,,,,,,,,,,,
27204174872208,,,,,,,,,,,,,,,,52.3945175344612,13.1328165996942,14.765625,3.95000004768372,36.2913818359375,10.0,8.0,,,,,,,
27204196130792,0.0889587402,-0.7507934570,-0.7015228271,,,,,,,,,,,,,,,,,,,,,,,,,,
27204218991792,,,,,,,0.1250849480,-0.1049218890,0.0351449380,,,,,,,,,,,,,,,,,,,,
27204266609792,,,,,,,,,,,,,-70.5584259033,147.8519287109,351.6986694336,,,,,,,,,,,,,,
27204294219792,0.1464233398,-0.6239776611,-0.6644592285,,,,,,,,,,,,,,,,,,,,,,,,,,
27204314644792,,,,,,,-0.0291216665,-0.0147965230,-0.0524030208,,,,,,,,,,,,,,,,,,,,
27204364327792,,,,,,,,,,,,,-71.9600830078,144.7193145752,347.6343688965,,,,,,,,,,,,,,
27204392302792,0.2768096924,-0.7364044189,-0.8255310059,,,,,,,,,,,,,,,,,,,,,,,,,,
27204410318792,,,,,,,-0.0001249023,-0.0853516498,-0.2019285970,,,,,,,,,,,,,,,,,,,,
27204462746792,,,,,,,,,,,,,-73.5369262695,144.5452728271,346.7876281738,,,,,,,,,,,,,,
27204490385792,0.3354339600,-0.6227722168,-0.6960449219,,,,,,,,,,,,,,,,,,,,,,,,,,
27204505960792,,,,,,,-0.0525801210,0.0481765841,-0.0557796427,,,,,,,,,,,,,,,,,,,,
27204561135792,,,,,,,,,,,,,-72.6609039307,148.8961334229,352.0373535156,,,,,,,,,,,,,,
27204588469792,0.2086181641,-0.7149505615,-0.6743011475,,,,,,,,,,,,,,,,,,,,,,,,,,
27204601641792,,,,,,,-0.0110505206,0.2403902358,0.1119145511,,,,,,,,,,,,,,,,,,,,
27204659562792,,,,,,,,,,,,,-72.1352844238,145.5894775391,349.4971923828,,,,,,,,,,,,,,
27204686553792,0.2677612305,-0.7716522217,-0.7636108398,,,,,,,,,,,,,,,,,,,,,,,,,,
27204697305792,,,,,,,-0.0456228790,0.0393748367,0.3519210254,,,,,,,,,,,,,,,,,,,,
27204757975792,,,,,,,,,,,,,-72.3104858398,143.3270416260,349.3278198242,,,,,,,,,,,,,,
27204784636792,0.2049713135,-0.6521759033,-0.6437530518,,,,,,,,,,,,,,,,,,,,,,,,,,
27204792946792,,,,,,,0.0589653160,0.2296723440,0.0630269030,,,,,,,,,,,,,,,,,,,,
27204856394792,,,,,,,,,,,,,-71.9600830078,147.1557922363,353.3921508789,,,,,,,,,,,,,,
27204882720792,0.1721496582,-0.6640167236,-0.7418670654,,,,,,,,,,,,,,,,,,,,,,,,,,
27204888619792,,,,,,,0.0259157532,0.0908257774,-0.1267768542,,,,,,,,,,,,,,,,,,,,
27204954795792,,,,,,,,,,,,,-72.1352844238,144.1972045898,348.8197937012,,,,,,,,,,,,,,
27204980802792,0.2418670654,-0.7548675537,-0.7031707764,,,,,,,,,,,,,,,,,,,,,,,,,,
27204984259792,,,,,,,-0.1361644971,-0.0682621451,0.1241504447,,,,,,,,,,,,,,,,,,,,
27205053200792,,,,,,,,,,,,,-74.0625457764,145.7635192871,351.6986694336,,,,,,,,,,,,,,
27205080967917,,,,,,,,,,,,,,,,52.394555127297,13.1328065414104,0.3515625,4.40999984741211,37.6278686523438,10.0,8.0,,,,,,,
27205079933792,,,,,,,-0.1378635938,0.1965346305,-0.2822545955,,,,,,,,,,,,,,,,,,,,
27205078886792,0.2516632080,-0.5782470703,-0.7485198975,,,,,,,,,,,,,,,,,,,,,,,,,,
27205151619792,,,,,,,,,,,,,-71.9600830078,146.8077239990,352.3760375977,,,,,,,,,,,,,,
27205175606792,,,,,,,0.1200435840,0.0416598289,-0.0509958064,,,,,,,,,,,,,,,,,,,,
27205176969792,0.2984771729,-0.6855468750,-0.7272644043,,,,,,,,,,,,,,,,,,,,,,,,,,
27205250006792,,,,,,,,,,,,,-72.1352844238,142.4568634033,346.7876281738,,,,,,,,,,,,,,
27205271248792,,,,,,,0.1199666187,0.2312609196,0.1143068687,,,,,,,,,,,,,,,,,,,,
27205275053792,0.2514190674,-0.6117858887,-0.7134399414,,,,,,,,,,,,,,,,,,,,,,,,,,
27205346474792,,,,,,,,,,,,,-74.7633819580,147.1557922363,349.6665039062,,,,,,,,,,,,,,
27205366910792,,,,,,,-0.0678235224,-0.0617946584,0.1728375568,,,,,,,,,,,,,,,,,,,,
27205373168792,0.1061401367,-0.5221862793,-0.8139343262,,,,,,,,,,,,,,,,,,,,,,,,,,
27205444857792,,,,,,,,,,,,,-72.8361053467,147.3298187256,351.5293273926,,,,,,,,,,,,,,
27205462563792,,,,,,,0.0598276476,0.0312695059,0.3179777057,,,,,,,,,,,,,,,,,,,,
27205471227792,0.0783691406,-0.5229187012,-0.8569183350,,,,,,,,,,,,,,,,,,,,,,,,,,
27205543259792,,,,,,,,,,,,,-74.7633819580,141.9347686768,348.6504516602,,,,,,,,,,,,,,
27205558235792,,,,,,,-0.0373987712,-0.1481942620,-0.0140843937,,,,,,,,,,,,,,,,,,,,
27205569334792,0.1663055420,-0.5028533936,-0.8346862793,,,,,,,,,,,,,,,,,,,,,,,,,,
27205641671792,,,,,,,,,,,,,-72.3104858398,147.1557922363,352.3760375977,,,,,,,,,,,,,,
27205653908792,,,,,,,-0.0808181507,-0.0257727414,0.0256089570,,,,,,,,,,,,,,,,,,,,
27205667417792,0.1678466797,-0.5095367432,-0.9069519043,,,,,,,,,,,,,,,,,,,,,,,,,,
27205740073792,,,,,,,,,,,,,-73.3617248535,144.0231781006,350.0052185059,,,,,,,,,,,,,,
27205749550792,,,,,,,-0.1990973905,0.0697774837,0.1323015819,,,,,,,,,,,,,,,,,,,,
27205765532792,0.0372772217,-0.5930633545,-0.8606719971,,,,,,,,,,,,,,,,,,,,,,,,,,
27205838478792,,,,,,,,,,,,,-73.1865234375,143.8491363525,348.1423950195,,,,,,,,,,,,,,
27205845223792,,,,,,,0.0858214314,0.0487465006,-0.0710994769,,,,,,,,,,,,,,,,,,,,
27205863616792,0.1055908203,-0.4945983887,-0.8215484619,,,,,,,,,,,,,,,,,,,,,,,,,,
27205936867792,,,,,,,,,,,,,-71.9600830078,148.5480651855,352.3760375977,,,,,,,,,,,,,,
27205940865792,,,,,,,0.0735871357,-0.0857284871,0.0387266233,,,,,,,,,,,,,,,,,,,,
27205961698792,0.0121002197,-0.6111297607,-0.8681182861,,,,,,,,,,,,,,,,,,,,,,,,,,
27206035287792,,,,,,,,,,,,,-73.1865234375,144.5452728271,348.4810791016,,,,,,,,,,,,,,
27206036537792,,,,,,,0.1658227905,-0.0492192117,-0.0949131970,,,,,,,,,,,,,,,,,,,,
27206059783792,0.2058105469,-0.5879669189,-0.7295379639,,,,,,,,,,,,,,,,,,,,,,,,,,
27206076449875,,,,,,,,,,,,,,,,52.3946438078325,13.1327028572682,336.4453125,6.53000020980835,36.9072265625,10.0,8.0,,,,,,,
27206132211792,,,,,,,0.2079611895,0.1099779004,-0.0508986011,,,,,,,,,,,,,,,,,,,,
27206133675792,,,,,,,,,,,,,-74.0625457764,144.0231781006,350.0052185059,,,,,,,,,,,,,,
27206157896792,0.1855163574,-0.7364807129,-0.6427612305,,,,,,,,,,,,,,,,,,,,,,,,,,
27206227853792,,,,,,,0.2818884108,-0.1587856537,0.0556944216,,,,,,,,,,,,,,,,,,,,
27206232091792,,,,,,,,,,,,,-72.1352844238,149.0701599121,353.2227783203,,,,,,,,,,,,,,
27206255980792,0.1813354492,-0.7614746094,-0.7062377930,,,,,,,,,,,,,,,,,,,,,,,,,,
27206323525792,,,,,,,0.1704678761,-0.0708627219,-0.0143451172,,,,,,,,,,,,,,,,,,,,
27206330484792,,,,,,,,,,,,,-72.6609039307,141.9347686768,349.3278198242,,,,,,,,,,,,,,
27206354075792,0.1801300049,-0.7895355225,-0.6796417236,,,,,,,,,,,,,,,,,,,,,,,,,,
27206419167792,,,,,,,0.1740370446,-0.1780070188,-0.2034236957,,,,,,,,,,,,,,,,,,,,
27206426918792,,,,,,,,,,,,,-72.6609039307,146.1115875244,351.0213012695,,,,,,,,,,,,,,
27206452177792,0.1742706299,-0.6034240723,-0.6645660400,,,,,,,,,,,,,,,,,,,,,,,,,,
27206514839792,,,,,,,0.0468351499,-0.1670760741,0.0612764072,,,,,,,,,,,,,,,,,,,,
27206525338792,,,,,,,,,,,,,-72.1352844238,145.9375457764,352.8840942383,,,,,,,,,,,,,,
27206550258792,0.0858306885,-0.7374114990,-0.7588043213,,,,,,,,,,,,,,,,,,,,,,,,,,
27206610512792,,,,,,,-0.0540190269,-0.0001544633,0.0377279379,,,,,,,,,,,,,,,,,,,,
27206623726792,,,,,,,,,,,,,-72.3104858398,142.6309051514,348.6504516602,,,,,,,,,,,,,,
27206648344792,0.0728607178,-0.7536926270,-0.6573638916,,,,,,,,,,,,,,,,,,,,,,,,,,
27206706154792,,,,,,,-0.1356292017,0.0913038148,-0.1415270382,,,,,,,,,,,,,,,,,,,,
27206722115792,,,,,,,,,,,,,-72.3104858398,145.4154510498,352.3760375977,,,,,,,,,,,,,,
27206746428792,0.1068115234,-0.6794586182,-0.7528076172,,,,,,,,,,,,,,,,,,,,,,,,,,
27206801827792,,,,,,,-0.2362410308,0.0849295387,-0.0810466499,,,,,,,,,,,,,,,,,,,,
27206820534792,,,,,,,,,,,,,-71.4344635010,146.2856140137,351.5293273926,,,,,,,,,,,,,,
27206844511792,0.1331939697,-0.6863098145,-0.6771240234,,,,,,,,,,,,,,,,,,,,,,,,,,
27206897469792,,,,,,,-0.0771275420,0.1728324968,-0.1440738192,,,,,,,,,,,,,,,,,,,,
27206918932792,,,,,,,,,,,,,-73.1865234375,141.0645904541,347.8037109375,,,,,,,,,,,,,,
27206942625792,0.2054901123,-0.6083679199,-0.8068847656,,,,,,,,,,,,,,,,,,,,,,,,,,
27206993141792,,,,,,,0.0109093731,0.3374038680,0.0502692961,,,,,,,,,,,,,,,,,,,,
27207017311792,,,,,,,,,,,,,-73.5369262695,146.2856140137,350.5132446289,,,,,,,,,,,,,,
27207032464750,,,,,,,,,,,,,,,,52.3946957337227,13.1326176971319,326.953125,6.92999982833862,37.115478515625,10.0,8.0,,,,,,,
27207040709792,0.1228637695,-0.6638641357,-0.7547302246,,,,,,,,,,,,,,,,,,,,,,,,,,
27207088814792,,,,,,,-0.2235566609,0.1968089361,0.0201446831,,,,,,,,,,,,,,,,,,,,
27207115732792,,,,,,,,,,,,,-72.6609039307,147.5038604736,350.6826171875,,,,,,,,,,,,,,
27207138792792,0.0704650879,-0.4981079102,-0.7660522461,,,,,,,,,,,,,,,,,,,,,,,,,,
27207184456792,,,,,,,-0.0846602932,-0.0111679660,0.0555032066,,,,,,,,,,,,,,,,,,,,
27207214119792,,,,,,,,,,,,,-74.9385833740,143.1529998779,347.1263427734,,,,,,,,,,,,,,
27207236876792,0.0700836182,-0.5692749023,-0.8123779297,,,,,,,,,,,,,,,,,,,,,,,,,,
27207280130792,,,,,,,-0.0881796605,0.0480727208,-0.0318825656,,,,,,,,,,,,,,,,,,,,
27207312533792,,,,,,,,,,,,,-72.3104858398,147.1557922363,353.3921508789,,,,,,,,,,,,,,
27207334959792,0.0808410645,-0.4497833252,-0.8968811035,,,,,,,,,,,,,,,,,,,,,,,,,,
27207375771792,,,,,,,0.0207556123,-0.0240989447,0.0341710199,,,,,,,,,,,,,,,,,,,,
27207408974792,,,,,,,,,,,,,-73.7121429443,143.6751098633,348.9891357422,,,,,,,,,,,,,,
27207433012792,0.1137084961,-0.4825439453,-0.8637695312,,,,,,,,,,,,,,,,,,,,,,,,,,
27207471443792,,,,,,,-0.0468596510,0.0241948185,0.0636977533,,,,,,,,,,,,,,,,,,,,
27207507394792,,,,,,,,,,,,,-75.4642028809,144.7193145752,348.9891357422,,,,,,,,,,,,,,
27207531096792,0.0496368408,-0.4738769531,-0.9099273682,,,,,,,,,,,,,,,,,,,,,,,,,,
27207567117792,,,,,,,0.0557386300,0.1555525761,0.0139429799,,,,,,,,,,,,,,,,,,,,
27207605782792,,,,,,,,,,,,,-74.0625457764,148.5480651855,353.0534667969,,,,,,,,,,,,,,
27207629189792,0.0971984863,-0.4956665039,-0.7882690430,,,,,,,,,,,,,,,,,,,,,,,,,,
27207662758792,,,,,,,-0.0280912895,-0.0970349375,0.0641654044,,,,,,,,,,,,,,,,,,,,
27207704201792,,,,,,,,,,,,,-73.7121429443,144.0231781006,348.9891357422,,,,,,,,,,,,,,
27207727262792,0.0676116943,-0.4364776611,-0.9212951660,,,,,,,,,,,,,,,,,,,,,,,,,,
27207758431792,,,,,,,-0.0518014127,0.0883783324,0.0213910425,,,,,,,,,,,,,,,,,,,,
27207802586792,,,,,,,,,,,,,-74.2377624512,145.5894775391,349.8358764648,,,,,,,,,,,,,,
27207825347792,0.0971679688,-0.4287414551,-0.8033599854,,,,,,,,,,,,,,,,,,,,,,,,,,
27207854073792,,,,,,,-0.0437647915,0.1843626528,0.0739112424,,,,,,,,,,,,,,,,,,,,
27207901009792,,,,,,,,,,,,,-71.4344635010,149.4182281494,352.8840942383,,,,,,,,,,,,,,
27207923399792,0.0636444092,-0.4965515137,-0.9802246094,,,,,,,,,,,,,,,,,,,,,,,,,,
27207949745792,,,,,,,-0.0737647685,0.0507039240,0.0345198940,,,,,,,,,,,,,,,,,,,,
27207999398792,,,,,,,,,,,,,-73.7121429443,144.0231781006,345.2635192871,,,,,,,,,,,,,,
27208011092292,,,,,,,,,,,,,,,,52.3947012657788,13.132506720734,311.484375,7.34999990463257,37.2487182617188,10.0,8.0,,,,,,,
27208021483792,0.0443115234,-0.4630126953,-0.8570404053,,,,,,,,,,,,,,,,,,,,,,,,,,
27208045418792,,,,,,,0.0641177338,-0.1137942102,-0.0185377317,,,,,,,,,,,,,,,,,,,,
27208097786792,,,,,,,,,,,,,-73.0113220215,147.1557922363,350.3439025879,,,,,,,,,,,,,,
27208119535792,0.0606994629,-0.4584808350,-0.8307495117,,,,,,,,,,,,,,,,,,,,,,,,,,
27208141061792,,,,,,,-0.0795536818,-0.1238769381,0.0972589093,,,,,,,,,,,,,,,,,,,,
27208196205792,,,,,,,,,,,,,-71.6096649170,148.1999969482,352.0373535156,,,,,,,,,,,,,,
27208217620792,0.0425415039,-0.4759368896,-0.9122009277,,,,,,,,,,,,,,,,,,,,,,,,,,
27208236733792,,,,,,,0.0401032113,0.1226398998,-0.0281900928,,,,,,,,,,,,,,,,,,,,
27208294594792,,,,,,,,,,,,,-74.5881652832,142.8049316406,348.8197937012,,,,,,,,,,,,,,
27208315703792,0.0697937012,-0.4170837402,-0.8905029297,,,,,,,,,,,,,,,,,,,,,,,,,,
27208332375792,,,,,,,0.0068813419,0.1225839734,0.0132593464,,,,,,,,,,,,,,,,,,,,
27208391304792,,,,,,,,,,,,,-72.4857025146,147.6778869629,351.1906127930,,,,,,,,,,,,,,
27208413787792,0.0269165039,-0.5330352783,-1.0032348633,,,,,,,,,,,,,,,,,,,,,,,,,,
27208428044792,,,,,,,0.0087357010,0.0907725142,-0.1167106379,,,,,,,,,,,,,,,,,,,,
27208489693792,,,,,,,,,,,,,-72.8361053467,144.8933410645,350.5132446289,,,,,,,,,,,,,,
27208511843792,0.0527038574,-0.3395233154,-0.7572326660,,,,,,,,,,,,,,,,,,,,,,,,,,
27208523698792,,,,,,,-0.1300935550,-0.0391458049,0.1124298728,,,,,,,,,,,,,,,,,,,,
27208588082792,,,,,,,,,,,,,-73.0113220215,143.3270416260,349.3278198242,,,,,,,,,,,,,,
27208609954792,0.0998229980,-0.3911590576,-0.8816986084,,,,,,,,,,,,,,,,,,,,,,,,,,
27208619362792,,,,,,,0.0639355736,0.2381318752,0.0378126264,,,,,,,,,,,,,,,,,,,,
27208686470792,,,,,,,,,,,,,-74.0625457764,148.8961334229,352.0373535156,,,,,,,,,,,,,,
27208708036792,0.0506439209,-0.4744873047,-0.8198394775,,,,,,,,,,,,,,,,,,,,,,,,,,
27208715035792,,,,,,,-0.0930069063,-0.0912465568,0.0667127179,,,,,,,,,,,,,,,,,,,,
27208784859792,,,,,,,,,,,,,-74.0625457764,142.9789733887,350.3439025879,,,,,,,,,,,,,,
27208806089792,0.0551605225,-0.4343261719,-0.8218383789,,,,,,,,,,,,,,,,,,,,,,,,,,
27208810677792,,,,,,,-0.0983529359,0.0312761638,0.0762337852,,,,,,,,,,,,,,,,,,,,
27208883278792,,,,,,,,,,,,,-74.7633819580,145.0673828125,348.3117675781,,,,,,,,,,,,,,
27208904045167,0.1078033447,-0.4344329834,-0.8340454102,,,,,,,,,,,,,,,,,,,,,,,,,,
27208906236167,,,,,,,0.0429160420,0.0534336641,-0.0610532343,,,,,,,,,,,,,,,,,,,,
27208981546167,,,,,,,,,,,,,-74.5881652832,149.4182281494,352.2067260742,,,,,,,,,,,,,,
27209001901167,,,,,,,0.1505897754,-0.0841159430,0.0686560266,,,,,,,,,,,,,,,,,,,,
27209002135167,0.0261230469,-0.5034484863,-0.9644470215,,,,,,,,,,,,,,,,,,,,,,,,,,
27209031526625,,,,,,,,,,,,,,,,52.3947350448485,13.1323969178024,306.5625,7.57999992370605,37.2622680664062,10.0,8.0,,,,,,,
27209079932167,,,,,,,,,,,,,-74.0625457764,145.0673828125,348.3117675781,,,,,,,,,,,,,,
27209097540167,,,,,,,-0.0362757162,0.0656442577,0.1370694392,,,,,,,,,,,,,,,,,,,,
27209100188167,0.1005249023,-0.5480346680,-0.8066253662,,,,,,,,,,,,,,,,,,,,,,,,,,
27209178354167,,,,,,,,,,,,,-73.5369262695,145.5894775391,350.1745605469,,,,,,,,,,,,,,
27209193216167,,,,,,,0.0356397533,0.0630530020,-0.0862611193,,,,,,,,,,,,,,,,,,,,
27209198273167,0.1020812988,-0.4921417236,-0.9600982666,,,,,,,,,,,,,,,,,,,,,,,,,,
27209276742167,,,,,,,,,,,,,-72.3104858398,148.8961334229,353.3921508789,,,,,,,,,,,,,,
27209288879167,,,,,,,0.0646101523,0.1590639540,-0.0638796472,,,,,,,,,,,,,,,,,,,,
27209296325167,0.0770111084,-0.4775085449,-0.7326507568,,,,,,,,,,,,,,,,,,,,,,,,,,
27209373178167,,,,,,,,,,,,,-74.7633819580,143.3270416260,347.6343688965,,,,,,,,,,,,,,
27209384530167,,,,,,,-0.1570101242,-0.0659132370,0.1304264502,,,,,,,,,,,,,,,,,,,,
27209394408167,0.0836944580,-0.5205230713,-0.8781585693,,,,,,,,,,,,,,,,,,,,,,,,,,
27209471567167,,,,,,,,,,,,,-74.0625457764,147.1557922363,353.3921508789,,,,,,,,,,,,,,
27209480203167,,,,,,,0.0253682073,0.1359197526,-0.0283546761,,,,,,,,,,,,,,,,,,,,
27209492493167,0.0927734375,-0.4013366699,-0.7927246094,,,,,,,,,,,,,,,,,,,,,,,,,,
27209569955167,,,,,,,,,,,,,-73.7121429443,147.8519287109,352.0373535156,,,,,,,,,,,,,,
27209575845167,,,,,,,0.0866499408,0.0707575270,0.0088430264,,,,,,,,,,,,,,,,,,,,
27209590545167,0.0518341064,-0.4649963379,-0.8298187256,,,,,,,,,,,,,,,,,,,,,,,,,,
27209668344167,,,,,,,,,,,,,-74.4129638672,142.9789733887,347.9730529785,,,,,,,,,,,,,,
27209671513167,,,,,,,0.1047636973,-0.0234864177,0.1493812329,,,,,,,,,,,,,,,,,,,,
27209688628167,0.0664520264,-0.5116729736,-0.9238586426,,,,,,,,,,,,,,,,,,,,,,,,,,
27209766763167,,,,,,,,,,,,,-71.7848663330,148.7220916748,354.2388610840,,,,,,,,,,,,,,
27209767175167,,,,,,,-0.0142718803,0.2183392620,0.0181819334,,,,,,,,,,,,,,,,,,,,
27209786712167,0.0958404541,-0.4875335693,-0.8031768799,,,,,,,,,,,,,,,,,,,,,,,,,,
27209862832167,,,,,,,0.2600496910,0.0208871724,0.1609848921,,,,,,,,,,,,,,,,,,,,
27209865153167,,,,,,,,,,,,,-72.6609039307,145.7635192871,351.3599853516,,,,,,,,,,,,,,
27209884796167,0.1299896240,-0.4811553955,-0.8790740967,,,,,,,,,,,,,,,,,,,,,,,,,,
27209958505167,,,,,,,-0.0405780529,0.1325628380,0.2376905894,,,,,,,,,,,,,,,,,,,,
27209963540167,,,,,,,,,,,,,-73.7121429443,142.2828369141,345.2635192871,,,,,,,,,,,,,,
27209982880167,0.0359039307,-0.5129394531,-0.7878570557,,,,,,,,,,,,,,,,,,,,,,,,,,
27210040677042,,,,,,,,,,,,,,,,52.3947553290542,13.1322604604188,298.828125,6.8600001335144,37.255859375,10.0,8.0,,,,,,,
27210054150167,,,,,,,0.0180250732,0.0293214036,0.0597381654,,,,,,,,,,,,,,,,,,,,
27210061929167,,,,,,,,,,,,,-70.7336425781,148.3740234375,353.5614624023,,,,,,,,,,,,,,
27210080963167,0.0205993652,-0.5092468262,-0.8915405273,,,,,,,,,,,,,,,,,,,,,,,,,,
27210149820167,,,,,,,-0.0301507120,-0.0633432865,-0.0604761273,,,,,,,,,,,,,,,,,,,,
27210160319167,,,,,,,,,,,,,-73.1865234375,144.8933410645,350.8519287109,,,,,,,,,,,,,,
27210179047167,0.1217651367,-0.4655303955,-0.8290100098,,,,,,,,,,,,,,,,,,,,,,,,,,
27210245462167,,,,,,,-0.0319613952,-0.0049135322,0.0365010196,,,,,,,,,,,,,,,,,,,,
27210258737167,,,,,,,,,,,,,-72.6609039307,142.9789733887,348.6504516602,,,,,,,,,,,,,,
27210277130167,0.0444030762,-0.5924682617,-0.9138031006,,,,,,,,,,,,,,,,,,,,,,,,,,
27210341134167,,,,,,,-0.0872779142,0.2165722546,-0.0920159441,,,,,,,,,,,,,,,,,,,,
27210355905167,,,,,,,,,,,,,-69.8576049805,148.8961334229,354.4082031250,,,,,,,,,,,,,,
27210375214167,0.0674896240,-0.5252685547,-0.8444061279,,,,,,,,,,,,,,,,,,,,,,,,,,
27210436802167,,,,,,,-0.0081601919,-0.0293160773,-0.0773144959,,,,,,,,,,,,,,,,,,,,
27210454294167,,,,,,,,,,,,,-72.4857025146,142.4568634033,347.4650268555,,,,,,,,,,,,,,
27210473296167,0.0952148438,-0.5097808838,-0.8805084229,,,,,,,,,,,,,,,,,,,,,,,,,,
27210532449167,,,,,,,-0.0999431094,0.1331846861,0.0822842208,,,,,,,,,,,,,,,,,,,,
27210552713167,,,,,,,,,,,,,-74.0625457764,145.4154510498,350.6826171875,,,,,,,,,,,,,,
27210571349167,0.0817718506,-0.5212249756,-0.8499908447,,,,,,,,,,,,,,,,,,,,,,,,,,
27210628122167,,,,,,,0.1531176479,0.1786328617,-0.1696763846,,,,,,,,,,,,,,,,,,,,
27210651101167,,,,,,,,,,,,,-71.9600830078,149.2442016602,355.4242858887,,,,,,,,,,,,,,
27210669426167,0.1264038086,-0.5497131348,-0.7164001465,,,,,,,,,,,,,,,,,,,,,,,,,,
27210723764167,,,,,,,0.0272489316,-0.0557532774,-0.0318503414,,,,,,,,,,,,,,,,,,,,
27210749490167,,,,,,,,,,,,,-73.5369262695,144.1972045898,350.1745605469,,,,,,,,,,,,,,
27210767502167,0.0824279785,-0.5214538574,-0.9044952393,,,,,,,,,,,,,,,,,,,,,,,,,,
27210819446167,,,,,,,0.0201785053,-0.0135461689,-0.1352859202,,,,,,,,,,,,,,,,,,,,
27210847910167,,,,,,,,,,,,,-74.9385833740,146.2856140137,351.8680419922,,,,,,,,,,,,,,
27210865569167,-0.0191497803,-0.4425506592,-0.7911071777,,,,,,,,,,,,,,,,,,,,,,,,,,
27210915110167,,,,,,,0.0638966914,-0.1233656112,0.0443070111,,,,,,,,,,,,,,,,,,,,
27210946303167,,,,,,,,,,,,,-72.3104858398,146.4596557617,354.0695190430,,,,,,,,,,,,,,
27210963623167,0.1549377441,-0.6306304932,-0.9070739746,,,,,,,,,,,,,,,,,,,,,,,,,,
27211010751167,,,,,,,-0.0417900575,0.0822517303,-0.0274494677,,,,,,,,,,,,,,,,,,,,
27211041665042,,,,,,,,,,,,,,,,52.3947901558619,13.1321379169944,297.421875,7.19000005722046,37.4878540039062,10.0,8.0,,,,,,,
27211044688167,,,,,,,,,,,,,-73.7121429443,140.5424957275,347.2956542969,,,,,,,,,,,,,,
27211061675167,0.0237579346,-0.4911499023,-0.9222106934,,,,,,,,,,,,,,,,,,,,,,,,,,
27211106424167,,,,,,,0.0491521000,0.0170708626,-0.0592838301,,,,,,,,,,,,,,,,,,,,
27211143105167,,,,,,,,,,,,,-72.8361053467,148.3740234375,354.5775756836,,,,,,,,,,,,,,
27211159759167,0.0944519043,-0.5441741943,-1.0150604248,,,,,,,,,,,,,,,,,,,,,,,,,,
27211202091167,,,,,,,0.1530737058,0.0999431094,-0.0932889351,,,,,,,,,,,,,,,,,,,,
27211241517167,,,,,,,,,,,,,-71.6096649170,145.7635192871,352.3760375977,,,,,,,,,,,,,,
27211257843167,0.0130767822,-0.5952758789,-0.8942718506,,,,,,,,,,,,,,,,,,,,,,,,,,
27211297738167,,,,,,,0.1012848099,0.1737832454,-0.0629083923,,,,,,,,,,,,,,,,,,,,
27211339915167,,,,,,,,,,,,,-73.8873443604,139.6723175049,346.7876281738,,,,,,,,,,,,,,
27211355911167,0.0544128418,-0.5753326416,-0.8602752686,,,,,,,,,,,,,,,,,,,,,,,,,,
27211393412167,,,,,,,0.0405000223,-0.0131972948,-0.0136806585,,,,,,,,,,,,,,,,,,,,
27211436337167,,,,,,,,,,,,,-72.1352844238,150.1143646240,356.9484252930,,,,,,,,,,,,,,
27211454009167,0.1743469238,-0.5760192871,-0.9388580322,,,,,,,,,,,,,,,,,,,,,,,,,,
27211489053167,,,,,,,0.0417248101,0.1139593262,-0.1196174783,,,,,,,,,,,,,,,,,,,,
27211534758167,,,,,,,,,,,,,-73.7121429443,142.6309051514,350.3439025879,,,,,,,,,,,,,,
27211552093167,0.0987091064,-0.5420837402,-0.8143005371,,,,,,,,,,,,,,,,,,,,,,,,,,
27211584723167,,,,,,,0.0647228040,0.0742369470,-0.0212645424,,,,,,,,,,,,,,,,,,,,
27211633163167,,,,,,,,,,,,,-73.8873443604,140.7165222168,352.5454101562,,,,,,,,,,,,,,
27211650177167,0.0659332275,-0.5406951904,-0.8397369385,,,,,,,,,,,,,,,,,,,,,,,,,,
27211680368167,,,,,,,-0.0034189662,-0.0510101875,-0.0205739847,,,,,,,,,,,,,,,,,,,,
27211731563167,,,,,,,,,,,,,-71.4344635010,151.5066375732,358.9805603027,,,,,,,,,,,,,,
27211748260167,0.1037445068,-0.5160827637,-0.6958007812,,,,,,,,,,,,,,,,,,,,,,,,,,
27211776040167,,,,,,,-0.0740284215,0.0847497754,0.0716502186,,,,,,,,,,,,,,,,,,,,
27211829961167,,,,,,,,,,,,,-75.6394042969,140.7165222168,351.8680419922,,,,,,,,,,,,,,
27211846344167,0.0948028564,-0.5524749756,-0.7055969238,,,,,,,,,,,,,,,,,,,,,,,,,,
27211871713167,,,,,,,-0.1124546402,-0.0526546895,-0.0002777677,,,,,,,,,,,,,,,,,,,,
27211928367167,,,,,,,,,,,,,-75.1137847900,145.0673828125,352.7147521973,,,,,,,,,,,,,,
27211944391167,0.1106109619,-0.5597381592,-0.7278594971,,,,,,,,,,,,,,,,,,,,,,,,,,
27211967376167,,,,,,,-0.1483583127,-0.0647081566,0.1090726919,,,,,,,,,,,,,,,,,,,,
27212009501250,,,,,,,,,,,,,,,,52.3948603123914,13.132115704951,306.5625,5.92000007629395,37.0745849609375,10.0,8.0,,,,,,,
27212026773167,,,,,,,,,,,,,-73.5369262695,150.1143646240,359.6579589844,,,,,,,,,,,,,,
27212042480167,0.1339263916,-0.5274658203,-0.7526397705,,,,,,,,,,,,,,,,,,,,,,,,,,
27212063028167,,,,,,,-0.0112121745,0.2168172654,-0.1322951903,,,,,,,,,,,,,,,,,,,,
27212125162167,,,,,,,,,,,,,-75.9898223877,139.6723175049,348.4810791016,,,,,,,,,,,,,,
27212140563167,0.1529388428,-0.5599365234,-0.7648468018,,,,,,,,,,,,,,,,,,,,,,,,,,
27212158671167,,,,,,,-0.0294369848,-0.0739679677,0.0751205838,,,,,,,,,,,,,,,,,,,,
27212223587167,,,,,,,,,,,,,-74.5881652832,146.9817504883,354.5775756836,,,,,,,,,,,,,,
27212238647167,0.1359100342,-0.5003051758,-0.7034759521,,,,,,,,,,,,,,,,,,,,,,,,,,
27212264968167,,,,,,,-0.1668853918,-0.0719679337,0.1556151604,,,,,,,,,,,,,,,,,,,,
27212321969167,,,,,,,,,,,,,-72.1352844238,148.0259552002,356.9484252930,,,,,,,,,,,,,,
27212336745167,0.1968841553,-0.5749664307,-0.8954620361,,,,,,,,,,,,,,,,,,,,,,,,,,
27212360636167,,,,,,,0.0022309300,0.1611838302,-0.0800956350,,,,,,,,,,,,,,,,,,,,
27212418436167,,,,,,,,,,,,,-76.3402252197,140.7165222168,348.4810791016,,,,,,,,,,,,,,
27212434828167,0.1249542236,-0.5451507568,-0.8007354736,,,,,,,,,,,,,,,,,,,,,,,,,,
27212456308167,,,,,,,0.0227463252,0.0597094032,0.0781003948,,,,,,,,,,,,,,,,,,,,
27212516855167,,,,,,,,,,,,,-73.1865234375,150.4624328613,358.9805603027,,,,,,,,,,,,,,
27212532882167,0.1789703369,-0.5011138916,-0.8041534424,,,,,,,,,,,,,,,,,,,,,,,,,,
27212551950167,,,,,,,-0.0021648837,0.2196748373,0.0507465346,,,,,,,,,,,,,,,,,,,,
27212615243167,,,,,,,,,,,,,-73.7121429443,146.1115875244,353.7308349609,,,,,,,,,,,,,,
27212630965167,0.0847167969,-0.5364990234,-0.8727264404,,,,,,,,,,,,,,,,,,,,,,,,,,
27212647613167,,,,,,,0.3906987814,0.0125128624,-0.0498320051,,,,,,,,,,,,,,,,,,,,
27212713632167,,,,,,,,,,,,,-75.2889862061,141.7607269287,348.4810791016,,,,,,,,,,,,,,
27212729048167,0.0798034668,-0.5659790039,-0.8875122070,,,,,,,,,,,,,,,,,,,,,,,,,,
27212743283167,,,,,,,-0.0912667969,-0.0515508092,-0.0943922827,,,,,,,,,,,,,,,,,,,,
27212812021167,,,,,,,,,,,,,-73.0113220215,150.6364746094,359.1499023438,,,,,,,,,,,,,,
27212827133167,0.0852813721,-0.4929809570,-0.7302246094,,,,,,,,,,,,,,,,,,,,,,,,,,
27212838938167,,,,,,,-0.0713375635,-0.0425186984,0.1173838851,,,,,,,,,,,,,,,,,,,,
27212910441167,,,,,,,,,,,,,-74.7633819580,144.0231781006,351.0213012695,,,,,,,,,,,,,,
27212925216167,0.1835937500,-0.5160675049,-0.8469696045,,,,,,,,,,,,,,,,,,,,,,,,,,
27212934610167,,,,,,,-0.1571201127,0.1254774979,-0.0015211976,,,,,,,,,,,,,,,,,,,,
27213008830167,,,,,,,,,,,,,-74.5881652832,143.5010681152,351.1906127930,,,,,,,,,,,,,,
27213023300167,0.0691070557,-0.5279388428,-0.7731323242,,,,,,,,,,,,,,,,,,,,,,,,,,
27213030264167,,,,,,,-0.0057745322,-0.1007194208,-0.0022913838,,,,,,,,,,,,,,,,,,,,
27213093794750,,,,,,,,,,,,,,,,52.3947985796746,13.1319077499333,286.171875,7.21999979019165,37.80419921875,10.0,12.0,,,,,,,
27213107248167,,,,,,,,,,,,,-71.7848663330,150.8105010986,360.6740112305,,,,,,,,,,,,,,
27213125924167,,,,,,,-0.0260233449,0.0860320874,0.0063268718,,,,,,,,,,,,,,,,,,,,
27213121376167,0.2145233154,-0.4422912598,-0.8047790527,,,,,,,,,,,,,,,,,,,,,,,,,,
27213205668167,,,,,,,,,,,,,-76.1650238037,143.3270416260,348.9891357422,,,,,,,,,,,,,,
27213221568167,,,,,,,0.1591371909,0.0055447014,-0.0003818973,,,,,,,,,,,,,,,,,,,,
27213219452167,-0.0120544434,-0.5792388916,-0.9027099609,,,,,,,,,,,,,,,,,,,,,,,,,,
27213304055167,,,,,,,,,,,,,-73.1865234375,145.9375457764,353.5614624023,,,,,,,,,,,,,,
27213317239167,,,,,,,-0.1015516587,0.1394364568,0.1724926775,,,,,,,,,,,,,,,,,,,,
27213317520167,0.1059570312,-0.4802551270,-0.8372650146,,,,,,,,,,,,,,,,,,,,,,,,,,
27213401498167,,,,,,,,,,,,,-72.3104858398,149.2442016602,357.7951354980,,,,,,,,,,,,,,
27213412908167,,,,,,,-0.0134923730,-0.0291083507,0.0305461914,,,,,,,,,,,,,,,,,,,,
27213415603167,0.0928649902,-0.5738677979,-0.8764495850,,,,,,,,,,,,,,,,,,,,,,,,,,
27213499887167,,,,,,,,,,,,,-75.8146057129,142.6309051514,348.6504516602,,,,,,,,,,,,,,
27213508554167,,,,,,,0.0929781442,0.0125488151,0.0059124839,,,,,,,,,,,,,,,,,,,,
27213513672167,0.0476226807,-0.4575042725,-0.8415527344,,,,,,,,,,,,,,,,,,,,,,,,,,
27213598278167,,,,,,,,,,,,,-74.4129638672,148.1999969482,356.7790527344,,,,,,,,,,,,,,
27213604226167,,,,,,,0.0898217657,0.1333577916,-0.2228269547,,,,,,,,,,,,,,,,,,,,
27213611770167,0.0537872314,-0.4654388428,-0.7493286133,,,,,,,,,,,,,,,,,,,,,,,,,,
27213696662167,,,,,,,,,,,,,-74.2377624512,149.4182281494,356.6097106934,,,,,,,,,,,,,,
27213699870167,,,,,,,-0.0122856947,-0.0605789253,0.0610987744,,,,,,,,,,,,,,,,,,,,
27213709823167,0.0032958984,-0.5671539307,-0.9610900879,,,,,,,,,,,,,,,,,,,,,,,,,,
27213795077167,,,,,,,,,,,,,-76.3402252197,142.1087951660,349.4971923828,,,,,,,,,,,,,,
27213795548167,,,,,,,-0.0834661317,-0.0050919640,0.0579210905,,,,,,,,,,,,,,,,,,,,
27213807936167,0.0541687012,-0.4622192383,-0.8278961182,,,,,,,,,,,,,,,,,,,,,,,,,,
27213891214167,,,,,,,-0.0563024212,-0.0886526379,0.0703679065,,,,,,,,,,,,,,,,,,,,
27213893489167,,,,,,,,,,,,,-73.1865234375,150.8105010986,358.3031616211,,,,,,,,,,,,,,
27213905903250,0.0334930420,-0.5070953369,-0.9283599854,,,,,,,,,,,,,,,,,,,,,,,,,,
27213986739250,,,,,,,-0.0332540936,0.0496106964,0.0081226413,,,,,,,,,,,,,,,,,,,,
27213991805250,,,,,,,,,,,,,-73.0113220215,144.7193145752,354.7468872070,,,,,,,,,,,,,,
27214004018250,0.0442962646,-0.4439239502,-0.8549194336,,,,,,,,,,,,,,,,,,,,,,,,,,
27214036060792,,,,,,,,,,,,,,,,52.3948096437868,13.1317756511393,285.1171875,7.84999990463257,37.4210815429688,10.0,12.0,,,,,,,
27214082409250,,,,,,,0.0120795661,0.0679532184,-0.0160572635,,,,,,,,,,,,,,,,,,,,
27214090190250,,,,,,,,,,,,,-75.4642028809,142.9789733887,350.6826171875,,,,,,,,,,,,,,
27214102097250,0.0270233154,-0.4638977051,-0.8341064453,,,,,,,,,,,,,,,,,,,,,,,,,,
27214125592250,,,,,,,,,,,,,,,,,,,,,,,,0,0,0,1,0,0
27214178069250,,,,,,,0.1312046258,-0.0261815367,-0.0299677528,,,,,,,,,,,,,,,,,,,,
27214188614250,,,,,,,,,,,,,-73.3617248535,150.2884063721,358.8112182617,,,,,,,,,,,,,,
27214200185250,0.0746307373,-0.5102539062,-0.9437103271,,,,,,,,,,,,,,,,,,,,,,,,,,
27214273727250,,,,,,,0.1760437365,0.1147289798,-0.0333494348,,,,,,,,,,,,,,,,,,,,
27214287033250,,,,,,,,,,,,,-74.0625457764,142.9789733887,352.7147521973,,,,,,,,,,,,,,
27214298267250,0.0908813477,-0.4313354492,-0.7921905518,,,,,,,,,,,,,,,,,,,,,,,,,,
27214369399250,,,,,,,0.0591642541,-0.1319503109,0.0105794074,,,,,,,,,,,,,,,,,,,,
27214383492250,,,,,,,,,,,,,-74.5881652832,145.2414093018,350.8519287109,,,,,,,,,,,,,,
27214396342250,0.1312561035,-0.5756225586,-0.8964233398,,,,,,,,,,,,,,,,,,,,,,,,,,
27214465041250,,,,,,,-0.0354309615,-0.0328887079,0.0093226617,,,,,,,,,,,,,,,,,,,,
27214481899250,,,,,,,,,,,,,-71.4344635010,150.1143646240,357.2871093750,,,,,,,,,,,,,,
27214494434250,0.1511840820,-0.5419921875,-0.9005584717,,,,,,,,,,,,,,,,,,,,,,,,,,
27214560691250,,,,,,,0.0555937541,0.0829707838,0.1103078660,,,,,,,,,,,,,,,,,,,,
27214580306250,,,,,,,,,,,,,-73.3617248535,142.6309051514,350.0052185059,,,,,,,,,,,,,,
27214592518250,0.1355133057,-0.5180358887,-0.7646179199,,,,,,,,,,,,,,,,,,,,,,,,,,
27214656356250,,,,,,,0.0743738334,0.0900974028,0.0010612697,,,,,,,,,,,,,,,,,,,,
27214678702250,,,,,,,,,,,,,-74.0625457764,147.8519287109,355.0856018066,,,,,,,,,,,,,,
27214690601250,0.1651611328,-0.5603027344,-0.7978363037,,,,,,,,,,,,,,,,,,,,,,,,,,
27214752028250,,,,,,,-0.0732435879,0.1261592672,0.1462951618,,,,,,,,,,,,,,,,,,,,
27214777145250,,,,,,,,,,,,,-71.7848663330,149.0701599121,358.9805603027,,,,,,,,,,,,,,
27214788671250,0.1992340088,-0.4446563721,-0.8189697266,,,,,,,,,,,,,,,,,,,,,,,,,,
27214847701250,,,,,,,-0.0286132691,0.0001171791,0.1129225576,,,,,,,,,,,,,,,,,,,,
27214875564250,,,,,,,,,,,,,-74.4129638672,142.2828369141,348.9891357422,,,,,,,,,,,,,,
27214886739250,0.1021270752,-0.5829162598,-0.8902740479,,,,,,,,,,,,,,,,,,,,,,,,,,
27214943343250,,,,,,,-0.0407242604,0.1380449551,-0.0345308130,,,,,,,,,,,,,,,,,,,,
27214973984250,,,,,,,,,,,,,-73.3617248535,148.5480651855,355.7630004883,,,,,,,,,,,,,,
27214984822250,0.0663909912,-0.4955444336,-0.8459167480,,,,,,,,,,,,,,,,,,,,,,,,,,
27215015887250,,,,,,,,,,,,,,,,52.3947528144833,13.131552692515,271.7578125,8.5600004196167,37.1904296875,30.0,12.0,,,,,,,
27215039016250,,,,,,,0.0582063151,0.0162918880,0.1250647080,,,,,,,,,,,,,,,,,,,,
27215072402250,,,,,,,,,,,,,-71.0840454102,148.3740234375,353.9001770020,,,,,,,,,,,,,,
27215082906250,0.1468200684,-0.5501861572,-0.8365020752,,,,,,,,,,,,,,,,,,,,,,,,,,
27215134658250,,,,,,,-0.1035706011,0.1500984222,0.0569636841,,,,,,,,,,,,,,,,,,,,
27215170821250,,,,,,,,,,,,,-73.0113220215,139.8463592529,347.9730529785,,,,,,,,,,,,,,
27215180988250,0.0202026367,-0.4829864502,-0.8555603027,,,,,,,,,,,,,,,,,,,,,,,,,,
27215230330250,,,,,,,-0.1364718258,0.0311989322,0.1176928117,,,,,,,,,,,,,,,,,,,,
27215269241250,,,,,,,,,,,,,-72.6609039307,149.9403381348,357.7951354980,,,,,,,,,,,,,,
27215279073250,0.1311340332,-0.4649200439,-0.8984680176,,,,,,,,,,,,,,,,,,,,,,,,,,
27215326003250,,,,,,,-0.0989569408,0.1962856250,0.0888923224,,,,,,,,,,,,,,,,,,,,
27215365706250,,,,,,,,,,,,,-72.3104858398,144.0231781006,352.7147521973,,,,,,,,,,,,,,
27215377186250,0.0643310547,-0.3532562256,-0.8463287354,,,,,,,,,,,,,,,,,,,,,,,,,,
27215421645250,,,,,,,-0.0712992140,-0.0909775776,0.1481849410,,,,,,,,,,,,,,,,,,,,
27215464126250,,,,,,,,,,,,,-73.7121429443,141.5867004395,348.9891357422,,,,,,,,,,,,,,
27215475270250,0.1438751221,-0.3695373535,-0.8477020264,,,,,,,,,,,,,,,,,,,,,,,,,,
27215517318250,,,,,,,-0.0469081205,0.0956674043,0.0162596637,,,,,,,,,,,,,,,,,,,,
27215562546250,,,,,,,,,,,,,-72.3104858398,150.9845428467,358.4725341797,,,,,,,,,,,,,,
27215573353250,0.0313415527,-0.4869232178,-0.9498596191,,,,,,,,,,,,,,,,,,,,,,,,,,
27215612961250,,,,,,,0.0399077353,0.1191098798,0.0232800227,,,,,,,,,,,,,,,,,,,,
27215660964250,,,,,,,,,,,,,-72.3104858398,143.6751098633,351.3599853516,,,,,,,,,,,,,,
27215671437250,0.2115020752,-0.3866729736,-0.8858489990,,,,,,,,,,,,,,,,,,,,,,,,,,
27215708632250,,,,,,,-0.0114220316,0.0704006634,0.0416409205,,,,,,,,,,,,,,,,,,,,
27215759383250,,,,,,,,,,,,,-73.3617248535,145.4154510498,352.3760375977,,,,,,,,,,,,,,
27215769521250,0.0403137207,-0.4352569580,-0.8241729736,,,,,,,,,,,,,,,,,,,,,,,,,,
27215804305250,,,,,,,-0.0332607515,-0.0327315814,0.0782924087,,,,,,,,,,,,,,,,,,,,
27215857814250,,,,,,,,,,,,,-70.5584259033,149.5922698975,358.8112182617,,,,,,,,,,,,,,
27215867604250,0.1601257324,-0.4340667725,-0.8783721924,,,,,,,,,,,,,,,,,,,,,,,,,,
27215899948250,,,,,,,-0.0260523734,0.0933131699,0.0074754932,,,,,,,,,,,,,,,,,,,,
27215956221250,,,,,,,,,,,,,-73.5369262695,142.8049316406,348.8197937012,,,,,,,,,,,,,,
27215965687250,0.1186981201,-0.5235290527,-0.9941711426,,,,,,,,,,,,,,,,,,,,,,,,,,
27215995599250,,,,,,,0.0577005808,0.0849335335,-0.1104482146,,,,,,,,,,,,,,,,,,,,
27216055729125,,,,,,,,,,,,,,,,52.3947148444619,13.1313503533724,265.4296875,9.1899995803833,35.8036499023438,30.0,12.0,,,,,,,
27216054645250,,,,,,,,,,,,,-72.1352844238,145.5894775391,353.9001770020,,,,,,,,,,,,,,
