unix_time,acc_x,acc_y,acc_z,gyr_x,gyr_y,gyr_z,rot_x,rot_y,rot_z,mag_x,mag_y,mag_z,lat,lng,bearing,speed,alt,err_lat,err_lng,pressure,station,run,walk,auto,cycling,unknown
1451922459097.05,,,,,,,,,,,,,,52.3939510317159,13.1324032175431,-1.0,-1.0,33.0,65.0,12.0429630483687,,,,,,,
162060288.756833,0.0108795166,-0.8001556396,-0.8511962891,,,,,,,,,,,,,,,,,,,,,,,,
162060321.350792,,,,,-0.2009837075,-0.0692632273,0.1879222339,,,,,,,,,,,,,,,,,,,,
162060.323098958,,,,,,,,,,,-69.6241760254,-23.2080688477,359.6703796387,,,,,,,,,,,,,,
162060425.964708,,,,,0.1489508661,-0.2136403805,0.2448283938,,,,,,,,,,,,,,,,,,,,
162060433.726833,-0.0804595947,-0.7232360840,-0.6248168945,,,,,,,,,,,,,,,,,,,,,,,,
162060.426031958,,,,,,,,,,,-70.9695739746,-23.8807678223,359.6703796387,,,,,,,,,,,,,,
162060531.131458,,,,,0.1610530690,0.0017060210,0.1833985885,,,,,,,,,,,,,,,,,,,,
162060538.084708,-0.0268096924,-0.7324676514,-0.6330108643,,,,,,,,,,,,,,,,,,,,,,,,
162060.528681125,,,,,,,,,,,-72.1467895508,-24.7216339111,360.1608276367,,,,,,,,,,,,,,
1451923535516.23,,,,,,,,,,,,,,52.3942181152416,13.132532378502,-1.0,-1.0,33.0,904.806274891725,19.5923816744605,,,,,,,
162060635.024375,,,,,-0.0323792452,0.0755799791,0.1586037598,,,,,,,,,,,,,,,,,,,,
162060640.855625,-0.1054992676,-0.6743011475,-0.5464172363,,,,,,,,,,,,,,,,,,,,,,,,
162060.632353667,,,,,,,,,,,-71.3059234619,-24.2171173096,360.9782714844,,,,,,,,,,,,,,
1451923535528.63,,,,,,,,,,,,,,52.3944398222958,13.1326395955071,-1.0,-1.0,33.0,904.806274908943,19.5923816744605,,,,,,,
1451923535726.54,,,,,,,,,,,,,,52.3939570099185,13.1329760610268,-1.0,-1.0,33.0,65.0,10.467512461835,,,,,,,
1451923535769.09,,,,,,,,,,,,,,52.3939570099185,13.1329760610268,-1.0,-1.0,33.0,65.0,10.467512461835,,,,,,,
162060739.657167,,,,,-1.0156430870,0.6663756353,0.1151998266,,,,,,,,,,,,,,,,,,,,
162060744.431375,-0.2123870850,-0.6255035400,-0.5612182617,,,,,,,,,,,,,,,,,,,,,,,,
162060.735940417,,,,,,,,,,,-66.7652130127,-22.7035369873,363.1035766602,,,,,,,,,,,,,,
162060843.9145,,,,,-0.7110474995,-0.2434869595,-0.0052626726,,,,,,,,,,,,,,,,,,,,
162060.839949458,,,,,,,,,,,-64.5789489746,-18.8355255127,363.9210205078,,,,,,,,,,,,,,
162060849.212333,0.0862884521,-0.8847045898,-1.0531921387,,,,,,,,,,,,,,,,,,,,,,,,
162060.943392667,,,,,,,,,,,-65.0834655762,-20.6854553223,364.7384643555,,,,,,,,,,,,,,
162060953.462875,-0.0790100098,-0.6546173096,-0.6703186035,,,,,,,,,,,,,,,,,,,,,,,,
162061.045826,,,,,,,,,,,-67.4379119873,-19.3400573730,361.7957153320,,,,,,,,,,,,,,
162061056.905,-0.0899810791,-0.6994323730,-0.7623443604,,,,,,,,,,,,,,,,,,,,,,,,
162061062.399042,,,,,0.4343687643,-0.2699894071,0.2407090162,,,,,,,,,,,,,,,,,,,,
162061.149078375,,,,,,,,,,,-66.7652130127,-21.6944885254,365.3923950195,,,,,,,,,,,,,,
162061161.800208,-0.1629486084,-0.6869049072,-0.4771118164,,,,,,,,,,,,,,,,,,,,,,,,
162061167.059833,,,,,0.0440042096,-0.2073199003,0.2891966575,,,,,,,,,,,,,,,,,,,,
162061.2531245,,,,,,,,,,,-68.4469604492,-21.6944885254,365.3923950195,,,,,,,,,,,,,,
162061266.374542,-0.1777038574,-0.7247619629,-0.7328033447,,,,,,,,,,,,,,,,,,,,,,,,
162061272.283625,,,,,-0.3128370059,-0.0062600265,-0.0382922617,,,,,,,,,,,,,,,,,,,,
162061.357289958,,,,,,,,,,,-68.7833099365,-21.0218048096,363.7575378418,,,,,,,,,,,,,,
162061371.615125,-0.1345977783,-0.6505889893,-0.7684326172,,,,,,,,,,,,,,,,,,,,,,,,
162061376.009208,,,,,0.2231625130,0.3180852974,0.1134402761,,,,,,,,,,,,,,,,,,,,
162061475.903583,-0.0791320801,-0.7068939209,-0.6368408203,,,,,,,,,,,,,,,,,,,,,,,,
162061544.721042,,,,,-0.1800629792,-0.1644198373,0.0033766219,,,,,,,,,,,,,,,,,,,,
162061.541850833,,,,,,,,,,,-68.1106109619,-18.3310089111,366.3733520508,,,,,,,,,,,,,,
162061581.165958,-0.1578369141,-0.6865386963,-0.7508544922,,,,,,,,,,,,,,,,,,,,,,,,
162061645.757208,,,,,-0.1133001938,0.0223412584,-0.0678525509,,,,,,,,,,,,,,,,,,,,
162061.642888458,,,,,,,,,,,-67.7742614746,-19.6764068604,365.3923950195,,,,,,,,,,,,,,
162061686.356583,-0.0979156494,-0.7027130127,-0.7578735352,,,,,,,,,,,,,,,,,,,,,,,,
162061746.794583,,,,,-0.1541975597,-0.0160732424,-0.1728109252,,,,,,,,,,,,,,,,,,,,
162061.743927333,,,,,,,,,,,-65.5879974365,-17.8264923096,364.9019470215,,,,,,,,,,,,,,
162061791.598083,-0.1322021484,-0.6595153809,-0.7359771729,,,,,,,,,,,,,,,,,,,,,,,,
162061847.831167,,,,,-0.0837881079,0.1148770515,-0.1554471149,,,,,,,,,,,,,,,,,,,,
162061.844965875,,,,,,,,,,,-68.1106109619,-19.6764068604,365.3923950195,,,,,,,,,,,,,,
162061897.00125,-0.1210937500,-0.6726531982,-0.7314910889,,,,,,,,,,,,,,,,,,,,,,,,
162061948.871667,,,,,0.0797563483,0.0747562634,-0.1174549915,,,,,,,,,,,,,,,,,,,,
162061.946002958,,,,,,,,,,,-66.4288635254,-19.0037078857,364.4114990234,,,,,,,,,,,,,,
162062002.244875,-0.1065826416,-0.6782379150,-0.7423858643,,,,,,,,,,,,,,,,,,,,,,,,
162062049.913083,,,,,-0.0353771656,-0.0754135315,-0.0234592534,,,,,,,,,,,,,,,,,,,,
162062.047157833,,,,,,,,,,,-67.4379119873,-19.3400573730,365.0654296875,,,,,,,,,,,,,,
162062106.679792,-0.1375122070,-0.6895599365,-0.7576904297,,,,,,,,,,,,,,,,,,,,,,,,
162062150.949625,,,,,0.0479097354,0.1378079338,-0.0605016936,,,,,,,,,,,,,,,,,,,,
162062.148196375,,,,,,,,,,,-66.0925140381,-19.0037078857,365.0654296875,,,,,,,,,,,,,,
162062211.392292,-0.1135559082,-0.6777343750,-0.7144012451,,,,,,,,,,,,,,,,,,,,,,,,
162062251.985292,,,,,-0.1349373124,0.1606815581,-0.0664746313,,,,,,,,,,,,,,,,,,,,
162062.24923325,,,,,,,,,,,-66.7652130127,-19.6764068604,364.7384643555,,,,,,,,,,,,,,
162062316.60475,-0.1046600342,-0.6245574951,-0.6261291504,,,,,,,,,,,,,,,,,,,,,,,,
162062353.021375,,,,,-1.5695310590,0.1073040866,0.1903869895,,,,,,,,,,,,,,,,,,,,
162062.350274917,,,,,,,,,,,-66.0925140381,-16.3129119873,364.4114990234,,,,,,,,,,,,,,
162062421.869625,-0.1699676514,-0.6190185547,-0.9022064209,,,,,,,,,,,,,,,,,,,,,,,,
162062454.061208,,,,,-0.0381186236,1.1467720791,0.2099649519,,,,,,,,,,,,,,,,,,,,
162062.451311542,,,,,,,,,,,-67.4379119873,-16.3129119873,367.3542480469,,,,,,,,,,,,,,
162062526.731167,-0.0758972168,-0.6281890869,-0.7166900635,,,,,,,,,,,,,,,,,,,,,,,,
162062555.108333,,,,,-0.4537243528,0.4128208616,-0.2038868194,,,,,,,,,,,,,,,,,,,,
1451923537620.43,,,,,,,,,,,,,,52.3940658044946,13.1329703615199,-1.0,-1.0,33.0,65.0,10.0,,,,,,,
162062.552350167,,,,,,,,,,,-65.0834655762,-16.6492614746,366.0463562012,,,,,,,,,,,,,,
162062631.533875,-0.0140228271,-0.5645599365,-0.8338928223,,,,,,,,,,,,,,,,,,,,,,,,
162062656.144542,,,,,0.2131476957,0.2359203862,0.1240993121,,,,,,,,,,,,,,,,,,,,
162062.652641333,,,,,,,,,,,-65.2516479492,-17.1537933350,369.1525878906,,,,,,,,,,,,,,
162062736.753083,-0.0761413574,-0.5556488037,-0.8240966797,,,,,,,,,,,,,,,,,,,,,,,,
162062757.191625,,,,,0.0102353270,0.2093002269,-0.0117826236,,,,,,,,,,,,,,,,,,,,
162062.753681,,,,,,,,,,,-64.4107818604,-18.6673583984,368.3351745605,,,,,,,,,,,,,,
162062841.404417,-0.3722381592,-0.6107788086,-0.5974578857,,,,,,,,,,,,,,,,,,,,,,,,
162062858.319875,,,,,-1.2201791851,3.0428623478,-1.2144243603,,,,,,,,,,,,,,,,,,,,
162062.854811375,,,,,,,,,,,-62.7290344238,-14.2948303223,372.2588500977,,,,,,,,,,,,,,
1451923537915.15,,,,,,,,,,,,,,52.3942817096155,13.1322473846498,225.3515625,1.01999998092651,35.1069946289062,10.0,8.0,,,,,,,
1451923537992.42,,,,,,,,,,,,,,52.39427785394,13.1322410144034,-1.0,1.01999998092651,35.2848510742188,10.0,8.0,,,,,,,
162062946.70775,1.3290252686,-0.1306610107,-1.2914733887,,,,,,,,,,,,,,,,,,,,,,,,
162062959.356958,,,,,0.5982146904,0.8315781756,-1.3281250935,,,,,,,,,,,,,,,,,,,,
162062.95585175,,,,,,,,,,,-57.8519744873,-2.0180969238,386.1552124023,,,,,,,,,,,,,,
162063051.91,0.7037811279,-0.2915344238,-0.6788787842,,,,,,,,,,,,,,,,,,,,,,,,
162063060.396708,,,,,0.6361338433,-0.5124505170,0.5431168169,,,,,,,,,,,,,,,,,,,,
162063.056892833,,,,,,,,,,,-54.1521453857,-3.0271453857,383.5394287109,,,,,,,,,,,,,,
162063157.141167,0.7277526855,-0.3272399902,-0.8378906250,,,,,,,,,,,,,,,,,,,,,,,,
162063161.43475,,,,,-0.1376915536,-1.1735549575,0.3371175782,,,,,,,,,,,,,,,,,,,,
162063.15721975,,,,,,,,,,,-55.3293609619,-4.8770599365,380.4331665039,,,,,,,,,,,,,,
162063262.411333,,,,,0.2623954033,0.1452051300,0.6390601247,,,,,,,,,,,,,,,,,,,,
162063262.340833,0.2578735352,-0.4525146484,-0.7610168457,,,,,,,,,,,,,,,,,,,,,,,,
162063.258262292,,,,,,,,,,,-54.1521453857,-6.3906250000,378.3078613281,,,,,,,,,,,,,,
162063363.445167,,,,,0.0556270436,0.2752246492,-0.0380275435,,,,,,,,,,,,,,,,,,,,
162063367.296,0.4976196289,-0.4034271240,-0.7807464600,,,,,,,,,,,,,,,,,,,,,,,,
162063.359413833,,,,,,,,,,,-53.8157958984,-7.7360229492,377.9808959961,,,,,,,,,,,,,,
162063464.533667,,,,,0.0545495286,-0.0941778983,0.1887262422,,,,,,,,,,,,,,,,,,,,
162063.4604555,,,,,,,,,,,-54.8248443604,-8.0723724365,378.3078613281,,,,,,,,,,,,,,
162063472.565,0.4167633057,-0.4481658936,-0.8139190674,,,,,,,,,,,,,,,,,,,,,,,,
162063565.555583,,,,,-0.0046815709,0.1887717823,-0.0672504102,,,,,,,,,,,,,,,,,,,,
162063.561480333,,,,,,,,,,,-52.8067474365,-7.3996734619,378.6348266602,,,,,,,,,,,,,,
162063578.003875,0.4340057373,-0.4461364746,-0.7908325195,,,,,,,,,,,,,,,,,,,,,,,,
162063666.587917,,,,,-0.0241679206,-0.0559468892,0.0296668156,,,,,,,,,,,,,,,,,,,,
162063.662507208,,,,,,,,,,,-56.3384094238,-8.2405548096,378.7983093262,,,,,,,,,,,,,,
162063682.461583,0.4174499512,-0.4235076904,-0.8285064697,,,,,,,,,,,,,,,,,,,,,,,,
162063766.734125,,,,,0.0245759169,-0.1822837892,0.0694957213,,,,,,,,,,,,,,,,,,,,
162063.763543542,,,,,,,,,,,-53.6476135254,-7.9042053223,379.4522705078,,,,,,,,,,,,,,
162063787.714167,0.3467559814,-0.4445190430,-0.7962951660,,,,,,,,,,,,,,,,,,,,,,,,
162063867.775083,,,,,-0.1312807923,0.2376993778,-0.4824835631,,,,,,,,,,,,,,,,,,,,
162063.864142625,,,,,,,,,,,-53.6476135254,-8.2405548096,381.0870971680,,,,,,,,,,,,,,
162063892.022958,0.5541229248,-0.3700103760,-0.8091583252,,,,,,,,,,,,,,,,,,,,,,,,
1451923539004.96,,,,,,,,,,,,,,52.3942950368415,13.1323122605804,225.3515625,0.159999996423721,35.83984375,5.0,6.0,,,,,,,
162063968.838458,,,,,0.0585764945,-0.3696749888,0.1696614709,,,,,,,,,,,,,,,,,,,,
162063.965273375,,,,,,,,,,,-55.6657104492,-6.8951568604,379.4522705078,,,,,,,,,,,,,,
162063997.418083,0.3824615479,-0.4305877686,-0.8535461426,,,,,,,,,,,,,,,,,,,,,,,,
162064069.890333,,,,,0.0853806782,-0.1367988620,0.0407836489,,,,,,,,,,,,,,,,,,,,
162064.066421833,,,,,,,,,,,-55.3293609619,-7.5678558350,379.7792358398,,,,,,,,,,,,,,
162064102.973042,0.4107055664,-0.4280242920,-0.8242797852,,,,,,,,,,,,,,,,,,,,,,,,
162064170.9135,,,,,0.1020139835,-0.3237583632,0.1552375242,,,,,,,,,,,,,,,,,,,,
162064.167447625,,,,,,,,,,,-55.1611938477,-8.0723724365,376.0190429688,,,,,,,,,,,,,,
162064208.033708,0.3509063721,-0.4549713135,-0.8247985840,,,,,,,,,,,,,,,,,,,,,,,,
162064272.013083,,,,,0.1104162567,-0.3275784015,0.1670039025,,,,,,,,,,,,,,,,,,,,
162064.268549583,,,,,,,,,,,-54.6566619873,-8.5769042969,377.4904174805,,,,,,,,,,,,,,
162064312.794,0.3005218506,-0.4569091797,-0.8486785889,,,,,,,,,,,,,,,,,,,,,,,,
162064373.05275,,,,,0.2001549317,-0.5715039836,0.1793457899,,,,,,,,,,,,,,,,,,,,
162064.369592958,,,,,,,,,,,-55.8338775635,-9.7541198730,375.0381164551,,,,,,,,,,,,,,
162064418.011875,0.2003784180,-0.5004119873,-0.8465423584,,,,,,,,,,,,,,,,,,,,,,,,
162064474.093625,,,,,0.1126501162,-0.3822821271,0.0062280685,,,,,,,,,,,,,,,,,,,,
162064.470635833,,,,,,,,,,,-56.3384094238,-9.2495880127,373.2397460938,,,,,,,,,,,,,,
162064523.202208,0.2107086182,-0.4826965332,-0.8782196045,,,,,,,,,,,,,,,,,,,,,,,,
162064575.130375,,,,,0.0702509938,-0.0883881861,0.1070838432,,,,,,,,,,,,,,,,,,,,
162064.571672583,,,,,,,,,,,-57.1792755127,-9.4177703857,373.7302246094,,,,,,,,,,,,,,
162064628.455208,0.2177429199,-0.5055694580,-0.8555145264,,,,,,,,,,,,,,,,,,,,,,,,
162064676.166875,,,,,0.0139496378,0.0833263158,-0.0331382461,,,,,,,,,,,,,,,,,,,,
162064.672709083,,,,,,,,,,,-57.6838073730,-9.5859375000,373.2397460938,,,,,,,,,,,,,,
162064733.711042,0.2234497070,-0.4881286621,-0.8549499512,,,,,,,,,,,,,,,,,,,,,,,,
162064777.207333,,,,,0.0076842850,0.0457477812,-0.0130257872,,,,,,,,,,,,,,,,,,,,
162064.773748542,,,,,,,,,,,-57.0111083984,-10.5949859619,372.9127807617,,,,,,,,,,,,,,
162064838.7335,0.2291717529,-0.4938659668,-0.8471374512,,,,,,,,,,,,,,,,,,,,,,,,
162064878.248417,,,,,-0.0133094139,-0.0006732471,-0.0294673448,,,,,,,,,,,,,,,,,,,,
162064.874788125,,,,,,,,,,,-57.1792755127,-9.7541198730,372.7492980957,,,,,,,,,,,,,,
1451923540001.56,,,,,,,,,,,,,,52.3942950368415,13.1323122605804,225.3515625,0.0,37.4236450195312,5.0,8.0,,,,,,,
162064943.953875,0.2216186523,-0.4990234375,-0.8649749756,,,,,,,,,,,,,,,,,,,,,,,,
162064979.2865,,,,,0.1018571233,-0.1793921289,-0.0184301400,,,,,,,,,,,,,,,,,,,,
162064.975831,,,,,,,,,,,-56.5065765381,-11.4358673096,373.7302246094,,,,,,,,,,,,,,
162065049.152458,0.1797332764,-0.5365295410,-0.8714294434,,,,,,,,,,,,,,,,,,,,,,,,
162065080.322792,,,,,0.3713330729,-0.6018752053,-0.1857259249,,,,,,,,,,,,,,,,,,,,
162065.07687225,,,,,,,,,,,-58.0201568604,-9.5859375000,371.6049194336,,,,,,,,,,,,,,
162065154.426042,0.1396942139,-0.5325927734,-0.8788757324,,,,,,,,,,,,,,,,,,,,,,,,
162065181.363125,,,,,0.8270966082,-0.8322290522,0.0040514670,,,,,,,,,,,,,,,,,,,,
162065.177909167,,,,,,,,,,,-60.3745880127,-12.2767333984,368.3351745605,,,,,,,,,,,,,,
162065259.623625,0.0173950195,-0.6166534424,-0.8034362793,,,,,,,,,,,,,,,,,,,,,,,,
162065282.404458,,,,,1.0192351587,-0.4849464545,0.3777089469,,,,,,,,,,,,,,,,,,,,
162065.278947583,,,,,,,,,,,-62.5608520508,-15.1356964111,365.8828735352,,,,,,,,,,,,,,
162065364.848375,-0.1331481934,-0.6901550293,-0.6815338135,,,,,,,,,,,,,,,,,,,,,,,,
162065383.440958,,,,,0.4314086608,-0.2533185513,0.2159149864,,,,,,,,,,,,,,,,,,,,
162065.37998525,,,,,,,,,,,-65.0834655762,-17.3219604492,364.4114990234,,,,,,,,,,,,,,
162065470.040667,-0.0283508301,-0.6792602539,-0.7174835205,,,,,,,,,,,,,,,,,,,,,,,,
162065484.477875,,,,,0.1981040314,-0.1570735074,0.1795535165,,,,,,,,,,,,,,,,,,,,
162065.48102725,,,,,,,,,,,-65.4198150635,-17.6583099365,365.3923950195,,,,,,,,,,,,,,
162065575.317042,-0.0587463379,-0.7096405029,-0.6543426514,,,,,,,,,,,,,,,,,,,,,,,,
162065585.513042,,,,,-0.0125964856,-0.2178846604,0.1075245964,,,,,,,,,,,,,,,,,,,,
162065.582064417,,,,,,,,,,,-64.9152984619,-18.1628417969,365.2289428711,,,,,,,,,,,,,,
162065680.018917,0.0002899170,-0.6868286133,-0.5803070068,,,,,,,,,,,,,,,,,,,,,,,,
162065686.548625,,,,,-0.1230646740,-0.1948741496,-0.1352632833,,,,,,,,,,,,,,,,,,,,
162065.683102042,,,,,,,,,,,-65.9243469238,-18.1628417969,366.8637695312,,,,,,,,,,,,,,
162065785.312167,-0.0541992188,-0.6894989014,-0.7228240967,,,,,,,,,,,,,,,,,,,,,,,,
162065787.6015,,,,,-0.0031955270,0.0142471129,-0.0070653664,,,,,,,,,,,,,,,,,,,,
162065.784144208,,,,,,,,,,,-65.7561645508,-18.3310089111,365.3923950195,,,,,,,,,,,,,,
162065888.641458,,,,,-0.1691789061,0.0857673692,-0.2140379905,,,,,,,,,,,,,,,,,,,,
162065890.5225,-0.0247344971,-0.7003936768,-0.6850738525,,,,,,,,,,,,,,,,,,,,,,,,
162065.885189167,,,,,,,,,,,-65.5879974365,-17.4901428223,364.9019470215,,,,,,,,,,,,,,
1451923540994.12,,,,,,,,,,,,,,52.3942950368415,13.1323122605804,225.3515625,0.0,38.5283203125,10.0,12.0,,,,,,,
162065989.675333,,,,,-0.3894971631,0.0572491750,-0.0661627752,,,,,,,,,,,,,,,,,,,,
162065.98621775,,,,,,,,,,,-63.7380828857,-16.3129119873,365.0654296875,,,,,,,,,,,,,,
162065995.7925,-0.0765686035,-0.6594390869,-0.7652130127,,,,,,,,,,,,,,,,,,,,,,,,
162066090.711458,,,,,-0.1002046318,0.0066762785,-0.0703034580,,,,,,,,,,,,,,,,,,,,
162066.087255833,,,,,,,,,,,-65.4198150635,-16.6492614746,365.7193603516,,,,,,,,,,,,,,
162066100.601,-0.0692901611,-0.6495971680,-0.7604217529,,,,,,,,,,,,,,,,,,,,,,,,
162066191.748542,,,,,-0.1406074487,0.0183715505,-0.0594156566,,,,,,,,,,,,,,,,,,,,
162066.188293875,,,,,,,,,,,-64.7471160889,-15.9765625000,366.7003173828,,,,,,,,,,,,,,
162066205.856042,-0.0816192627,-0.6399536133,-0.7376403809,,,,,,,,,,,,,,,,,,,,,,,,
162066292.122542,,,,,-0.2175016978,0.0591565310,-0.0022003037,,,,,,,,,,,,,,,,,,,,
162066.289331667,,,,,,,,,,,-64.9152984619,-14.7993469238,366.8637695312,,,,,,,,,,,,,,
162066310.565125,-0.1079864502,-0.6278228760,-0.7924652100,,,,,,,,,,,,,,,,,,,,,,,,
162066393.158667,,,,,-0.1081634887,0.0716022817,-0.0595871641,,,,,,,,,,,,,,,,,,,,
162066.39037075,,,,,,,,,,,-64.0744323730,-15.9765625000,364.7384643555,,,,,,,,,,,,,,
162066415.861542,-0.0384826660,-0.6092224121,-0.7641754150,,,,,,,,,,,,,,,,,,,,,,,,
162066494.200125,,,,,-0.0945347618,0.1217235060,-0.0336447793,,,,,,,,,,,,,,,,,,,,
162066.491408917,,,,,,,,,,,-65.9243469238,-14.7993469238,366.5368041992,,,,,,,,,,,,,,
162066521.101333,-0.0767974854,-0.5952606201,-0.7860717773,,,,,,,,,,,,,,,,,,,,,,,,
162066595.2405,,,,,-0.0066083679,0.0109940616,-0.0495941848,,,,,,,,,,,,,,,,,,,,
162066.59202525,,,,,,,,,,,-64.4107818604,-14.2948303223,367.3542480469,,,,,,,,,,,,,,
162066626.320167,-0.0826721191,-0.6062316895,-0.8292999268,,,,,,,,,,,,,,,,,,,,,,,,
162066696.276042,,,,,0.2547515983,0.0588497348,-0.0369723991,,,,,,,,,,,,,,,,,,,,
162066.693061583,,,,,,,,,,,-65.4198150635,-14.2948303223,366.3733520508,,,,,,,,,,,,,,
162066731.519083,-0.0733337402,-0.6271057129,-0.7627105713,,,,,,,,,,,,,,,,,,,,,,,,
162066797.316792,,,,,0.1705696089,0.1752983177,-0.0068605693,,,,,,,,,,,,,,,,,,,,
162066.794126875,,,,,,,,,,,-63.9062500000,-15.1356964111,364.5749816895,,,,,,,,,,,,,,
162066836.291167,-0.0450286865,-0.6352539062,-0.7405853271,,,,,,,,,,,,,,,,,,,,,,,,
162066898.353208,,,,,0.1199157523,0.0815188283,-0.0385085104,,,,,,,,,,,,,,,,,,,,
162066.895164208,,,,,,,,,,,-64.5789489746,-15.1356964111,365.5559082031,,,,,,,,,,,,,,
1451923542000.33,,,,,,,,,,,,,,52.3943444481607,13.1324109993997,225.3515625,0.0,39.5679321289062,10.0,12.0,,,,,,,
162066941.591417,-0.0556335449,-0.6415863037,-0.7551269531,,,,,,,,,,,,,,,,,,,,,,,,
162066999.39,,,,,0.0034922031,0.0589727729,-0.0496328006,,,,,,,,,,,,,,,,,,,,
162066.996201667,,,,,,,,,,,-64.2425994873,-16.1447448730,363.9210205078,,,,,,,,,,,,,,
162067046.818375,-0.0545806885,-0.6477355957,-0.7487335205,,,,,,,,,,,,,,,,,,,,,,,,
162067100.424792,,,,,-0.1119353238,-0.0002561961,-0.0229599107,,,,,,,,,,,,,,,,,,,,
162067.097237875,,,,,,,,,,,-63.4017333984,-14.9675292969,363.7575378418,,,,,,,,,,,,,,
162067152.054375,-0.0540466309,-0.6349792480,-0.7721557617,,,,,,,,,,,,,,,,,,,,,,,,
162067201.460958,,,,,-0.1382838407,-0.0252656756,-0.0559048113,,,,,,,,,,,,,,,,,,,,
162067.198275833,,,,,,,,,,,-65.0834655762,-15.6402130127,364.7384643555,,,,,,,,,,,,,,
162067257.307083,-0.0974273682,-0.6559753418,-0.7462921143,,,,,,,,,,,,,,,,,,,,,,,,
162067302.497208,,,,,-0.0096246642,0.0473648526,-0.0011014834,,,,,,,,,,,,,,,,,,,,
162067.299315792,,,,,,,,,,,-64.4107818604,-14.9675292969,364.4114990234,,,,,,,,,,,,,,
162067362.506542,-0.0717926025,-0.6451873779,-0.7535247803,,,,,,,,,,,,,,,,,,,,,,,,
162067402.611583,,,,,-0.0475861613,-0.0257109561,-0.0032695629,,,,,,,,,,,,,,,,,,,,
162067.400352375,,,,,,,,,,,-65.9243469238,-15.8083953857,365.2289428711,,,,,,,,,,,,,,
162067467.30325,-0.0839996338,-0.6482543945,-0.7875061035,,,,,,,,,,,,,,,,,,,,,,,,
162067503.6395,,,,,0.0668011349,-0.1914330792,0.0018684738,,,,,,,,,,,,,,,,,,,,
162067.50138225,,,,,,,,,,,-66.9333953857,-15.8083953857,364.2479858398,,,,,,,,,,,,,,
162067571.643917,-0.1215972900,-0.6390380859,-0.7930297852,,,,,,,,,,,,,,,,,,,,,,,,
162067604.146208,,,,,-0.0689854596,-0.0839132765,-0.0149864064,,,,,,,,,,,,,,,,,,,,
162067.6025125,,,,,,,,,,,-67.4379119873,-15.6402130127,365.3923950195,,,,,,,,,,,,,,
162067676.168542,-0.1246948242,-0.6222686768,-0.7668609619,,,,,,,,,,,,,,,,,,,,,,,,
162067705.251292,,,,,-0.0788988105,-0.0697388679,0.0394470084,,,,,,,,,,,,,,,,,,,,
162067.703623458,,,,,,,,,,,-65.7561645508,-14.2948303223,363.4305725098,,,,,,,,,,,,,,
162067781.214958,-0.1115417480,-0.6227569580,-0.7585296631,,,,,,,,,,,,,,,,,,,,,,,,
162067806.355958,,,,,-0.0821803575,0.0326434307,0.0690618923,,,,,,,,,,,,,,,,,,,,
162067.804731458,,,,,,,,,,,-66.4288635254,-13.2857818604,364.7384643555,,,,,,,,,,,,,,
162067885.82175,-0.1292114258,-0.6029510498,-0.7570800781,,,,,,,,,,,,,,,,,,,,,,,,
162067906.895792,,,,,-0.0504879416,0.1180241090,-0.0114577180,,,,,,,,,,,,,,,,,,,,
162067.905832167,,,,,,,,,,,-66.2606964111,-16.1447448730,363.9210205078,,,,,,,,,,,,,,
1451923542991.44,,,,,,,,,,,,,,52.3943444481607,13.1324109993997,225.3515625,0.0,38.2279052734375,5.0,8.0,,,,,,,
162067990.479,-0.1272583008,-0.6139373779,-0.7637634277,,,,,,,,,,,,,,,,,,,,,,,,
162068007.929167,,,,,-0.0850704200,0.0342621001,-0.0148332746,,,,,,,,,,,,,,,,,,,,
162068.006867333,,,,,,,,,,,-64.5789489746,-14.4629974365,364.2479858398,,,,,,,,,,,,,,
162068095.684875,-0.1409301758,-0.5980072021,-0.7857971191,,,,,,,,,,,,,,,,,,,,,,,,
162068108.966208,,,,,0.0954383724,-0.0343140317,-0.0419607661,,,,,,,,,,,,,,,,,,,,
162068.1077705,,,,,,,,,,,-66.2606964111,-15.1356964111,362.9401245117,,,,,,,,,,,,,,
162068199.999542,-0.1571197510,-0.5949401855,-0.8057556152,,,,,,,,,,,,,,,,,,,,,,,,
162068210.003875,,,,,0.0433669152,0.1154941059,-0.0427565187,,,,,,,,,,,,,,,,,,,,
162068.208809125,,,,,,,,,,,-67.4379119873,-15.6402130127,363.1035766602,,,,,,,,,,,,,,
162068305.188333,-0.1354827881,-0.6102142334,-0.7345733643,,,,,,,,,,,,,,,,,,,,,,,,
162068311.040333,,,,,0.0572696813,0.0241977480,0.0173920398,,,,,,,,,,,,,,,,,,,,
162068.309844708,,,,,,,,,,,-66.5970458984,-17.1537933350,363.2670898438,,,,,,,,,,,,,,
162068410.089958,-0.1347961426,-0.5986175537,-0.7843475342,,,,,,,,,,,,,,,,,,,,,,,,
162068412.048,,,,,0.0012956279,-0.0000066579,-0.0070994548,,,,,,,,,,,,,,,,,,,,
162068.410255375,,,,,,,,,,,-66.0925140381,-14.6311798096,362.7766113281,,,,,,,,,,,,,,
162068513.084958,,,,,-0.0239735098,0.0526123452,-0.0317411518,,,,,,,,,,,,,,,,,,,,
162068514.419208,-0.1504364014,-0.6101989746,-0.8034210205,,,,,,,,,,,,,,,,,,,,,,,,
162068.511292625,,,,,,,,,,,-67.1015625000,-14.9675292969,363.1035766602,,,,,,,,,,,,,,
162068614.127042,,,,,-0.0336168161,0.1214313573,-0.0942900173,,,,,,,,,,,,,,,,,,,,
162068619.719667,-0.1198425293,-0.6095275879,-0.8106842041,,,,,,,,,,,,,,,,,,,,,,,,
162068.61234725,,,,,,,,,,,-64.9152984619,-14.4629974365,363.2670898438,,,,,,,,,,,,,,
162068715.163167,,,,,0.0006338323,0.2027272790,-0.0625483329,,,,,,,,,,,,,,,,,,,,
162068.71338475,,,,,,,,,,,-65.0834655762,-13.6221313477,363.4305725098,,,,,,,,,,,,,,
162068724.97425,-0.1369018555,-0.6078033447,-0.7900848389,,,,,,,,,,,,,,,,,,,,,,,,
162068816.204875,,,,,-0.0631717790,0.1918759629,-0.1295348238,,,,,,,,,,,,,,,,,,,,
162068.814429,,,,,,,,,,,-65.5879974365,-14.1266479492,363.5940551758,,,,,,,,,,,,,,
162068829.540917,-0.1099395752,-0.5963897705,-0.7830810547,,,,,,,,,,,,,,,,,,,,,,,,
162068917.313875,,,,,-0.0785874869,0.1061599926,-0.0786604575,,,,,,,,,,,,,,,,,,,,
162068.915483917,,,,,,,,,,,-64.4107818604,-13.2857818604,364.4114990234,,,,,,,,,,,,,,
1451923543994.76,,,,,,,,,,,,,,52.3943444481607,13.1324109993997,225.3515625,0.0,34.9861450195312,5.0,8.0,,,,,,,
162068934.779292,-0.0707550049,-0.5752716064,-0.8206024170,,,,,,,,,,,,,,,,,,,,,,,,
162069018.367333,,,,,-0.0178301298,0.0959387804,-0.0187569099,,,,,,,,,,,,,,,,,,,,
162069.0165255,,,,,,,,,,,-65.2516479492,-14.7993469238,363.9210205078,,,,,,,,,,,,,,
162069039.495917,-0.1157989502,-0.5950317383,-0.7951965332,,,,,,,,,,,,,,,,,,,,,,,,
162069119.418125,,,,,-0.0306567126,0.2132345148,-0.1096292926,,,,,,,,,,,,,,,,,,,,
162069.117561417,,,,,,,,,,,-65.0834655762,-13.2857818604,363.4305725098,,,,,,,,,,,,,,
162069144.608958,-0.0735168457,-0.5821228027,-0.7962036133,,,,,,,,,,,,,,,,,,,,,,,,
162069220.453708,,,,,0.0004719121,0.2333994379,-0.0767155510,,,,,,,,,,,,,,,,,,,,
162069.218602917,,,,,,,,,,,-63.7380828857,-13.6221313477,365.0654296875,,,,,,,,,,,,,,
162069249.842125,-0.0287017822,-0.5998077393,-0.7868957520,,,,,,,,,,,,,,,,,,,,,,,,
162069321.5065,,,,,-0.0899655764,0.0436971472,0.0135658763,,,,,,,,,,,,,,,,,,,,
162069.319664458,,,,,,,,,,,-62.2245025635,-14.1266479492,362.9401245117,,,,,,,,,,,,,,
162069355.062958,-0.0749206543,-0.5707092285,-0.8509521484,,,,,,,,,,,,,,,,,,,,,,,,
162069422.54675,,,,,-0.0242355649,0.1197855237,-0.0470721712,,,,,,,,,,,,,,,,,,,,
162069.420709333,,,,,,,,,,,-63.9062500000,-12.1085662842,366.5368041992,,,,,,,,,,,,,,
162069460.284167,-0.0209197998,-0.5729980469,-0.8266143799,,,,,,,,,,,,,,,,,,,,,,,,
162069522.807458,,,,,0.0414763371,-0.0239783035,0.1013790858,,,,,,,,,,,,,,,,,,,,
162069.521101208,,,,,,,,,,,-63.9062500000,-14.4629974365,364.2479858398,,,,,,,,,,,,,,
162069564.856542,-0.1006164551,-0.5879364014,-0.8072052002,,,,,,,,,,,,,,,,,,,,,,,,
162069623.843625,,,,,-0.0761088829,0.1554055696,-0.0491052284,,,,,,,,,,,,,,,,,,,,
162069.622137958,,,,,,,,,,,-63.4017333984,-13.6221313477,365.3923950195,,,,,,,,,,,,,,
162069669.901417,-0.0473632812,-0.5641632080,-0.8442230225,,,,,,,,,,,,,,,,,,,,,,,,
162069724.884125,,,,,0.0239620582,0.0593365607,0.0046099318,,,,,,,,,,,,,,,,,,,,
162069.723175917,,,,,,,,,,,-62.7290344238,-12.6130828857,365.7193603516,,,,,,,,,,,,,,
162069775.176917,-0.0399017334,-0.5740966797,-0.8326110840,,,,,,,,,,,,,,,,,,,,,,,,
162069825.919458,,,,,-0.0088667285,0.0616218192,-0.0365561470,,,,,,,,,,,,,,,,,,,,
162069.8242235,,,,,,,,,,,-63.4017333984,-12.6130828857,365.3923950195,,,,,,,,,,,,,,
162069880.369333,-0.0800170898,-0.5759124756,-0.7976226807,,,,,,,,,,,,,,,,,,,,,,,,
162069926.960333,,,,,-0.0211976970,0.0526805222,-0.0660325466,,,,,,,,,,,,,,,,,,,,
1451923544515.15,,,,,,,,,,,,,,52.3944095755484,13.1324866041663,225.3515625,0.0,24.8933715820312,10.0,24.0,,,,,,,
162069.925266125,,,,,,,,,,,-62.8972015381,-12.1085662842,364.9019470215,,,,,,,,,,,,,,
162069985.59375,-0.0527343750,-0.5652770996,-0.8470611572,,,,,,,,,,,,,,,,,,,,,,,,
162070027.70425,,,,,-0.0369401748,0.0375907851,-0.0115775602,,,,,,,,,,,,,,,,,,,,
162070.026322333,,,,,,,,,,,-61.3836364746,-12.9494323730,365.3923950195,,,,,,,,,,,,,,
162070090.792375,-0.0673370361,-0.5814666748,-0.8130187988,,,,,,,,,,,,,,,,,,,,,,,,
162070128.697667,,,,,-0.0885517041,0.0570816622,-0.0975334812,,,,,,,,,,,,,,,,,,,,
162070.126367292,,,,,,,,,,,-62.7290344238,-13.2857818604,366.0463562012,,,,,,,,,,,,,,
162070194.696958,-0.0307617188,-0.5703277588,-0.8437042236,,,,,,,,,,,,,,,,,,,,,,,,
162070229.713708,,,,,0.0515372271,0.0390584532,-0.1161186172,,,,,,,,,,,,,,,,,,,,
162070.226976833,,,,,,,,,,,-63.4017333984,-12.9494323730,363.7575378418,,,,,,,,,,,,,,
162070298.189958,-0.0254974365,-0.5655364990,-0.8422393799,,,,,,,,,,,,,,,,,,,,,,,,
162070329.934708,,,,,0.0767453784,0.0177390497,0.0219985096,,,,,,,,,,,,,,,,,,,,
162070.327999417,,,,,,,,,,,-62.8972015381,-13.1175994873,363.9210205078,,,,,,,,,,,,,,
162070403.554167,-0.1013031006,-0.5869140625,-0.8167114258,,,,,,,,,,,,,,,,,,,,,,,,
162070430.97825,,,,,0.0361337697,-0.1887739128,-0.1409523281,,,,,,,,,,,,,,,,,,,,
162070.429036375,,,,,,,,,,,-63.5699005127,-12.7812500000,363.9210205078,,,,,,,,,,,,,,
162070508.720167,-0.0665588379,-0.5893554688,-0.7898101807,,,,,,,,,,,,,,,,,,,,,,,,
1451923546000.0,,,,,,,,,,,,,,52.3943599127721,13.132366742951,225.3515625,0.219999998807907,34.5381469726562,10.0,24.0,,,,,,,
162070532.018375,,,,,-0.1320584353,-0.0985071329,-0.3124460538,,,,,,,,,,,,,,,,,,,,
162070.529787083,,,,,,,,,,,-62.5608520508,-12.4449005127,362.9401245117,,,,,,,,,,,,,,
162070613.712,0.0793304443,-0.5403594971,-0.7111358643,,,,,,,,,,,,,,,,,,,,,,,,
162070633.055792,,,,,-0.8849756208,0.5763067283,-0.0605528263,,,,,,,,,,,,,,,,,,,,
162070.630827333,,,,,,,,,,,-64.9152984619,-11.0995178223,365.5559082031,,,,,,,,,,,,,,
162070718.5645,-0.1237487793,-0.5548858643,-0.6598358154,,,,,,,,,,,,,,,,,,,,,,,,
162070734.101708,,,,,-0.2284238541,0.0920364504,0.3642653097,,,,,,,,,,,,,,,,,,,,
162070.731867792,,,,,,,,,,,-66.4288635254,-12.9494323730,366.0463562012,,,,,,,,,,,,,,
162070823.848917,0.0856475830,-0.5274353027,-0.9563598633,,,,,,,,,,,,,,,,,,,,,,,,
162070835.138,,,,,-1.2080546116,0.4674729219,-0.2690224133,,,,,,,,,,,,,,,,,,,,
162070.832909667,,,,,,,,,,,-67.4379119873,-10.2586364746,368.0081787109,,,,,,,,,,,,,,
162070929.046042,-0.0403442383,-0.5126953125,-0.8933105469,,,,,,,,,,,,,,,,,,,,,,,,
162070935.277333,,,,,-0.0094374440,0.3670839994,0.3843423485,,,,,,,,,,,,,,,,,,,,
162070.933944167,,,,,,,,,,,-70.2968750000,-14.4629974365,366.8637695312,,,,,,,,,,,,,,
162071034.264667,-0.0974731445,-0.5608367920,-0.9057769775,,,,,,,,,,,,,,,,,,,,,,,,
162071036.318792,,,,,-0.5916971363,-0.3263759842,0.1417105300,,,,,,,,,,,,,,,,,,,,
162071.034355917,,,,,,,,,,,-71.6422729492,-15.8083953857,368.8256225586,,,,,,,,,,,,,,
162071137.24675,,,,,-0.5009033168,0.8867847061,1.3129804954,,,,,,,,,,,,,,,,,,,,
162071138.861667,0.0939025879,-0.4247741699,-0.4513244629,,,,,,,,,,,,,,,,,,,,,,,,
162071.134601958,,,,,,,,,,,-73.3240203857,-18.4991760254,373.4032592773,,,,,,,,,,,,,,
162071238.287667,,,,,-0.9901089648,2.0234841773,0.5423455655,,,,,,,,,,,,,,,,,,,,
162071244.194,-0.1119079590,0.0378417969,-0.4948272705,,,,,,,,,,,,,,,,,,,,,,,,
162071.235656042,,,,,,,,,,,-73.9967041016,-18.4991760254,379.6157226562,,,,,,,,,,,,,,
162071339.323667,,,,,-0.9543983714,2.0491210975,-0.7331123217,,,,,,,,,,,,,,,,,,,,
162071.336697458,,,,,,,,,,,-78.8737640381,-17.9946594238,385.6647338867,,,,,,,,,,,,,,
162071349.390667,-0.0808258057,0.3488769531,-1.3739929199,,,,,,,,,,,,,,,,,,,,,,,,
162071440.364917,,,,,-0.8516632040,1.0800367243,-1.0804836027,,,,,,,,,,,,,,,,,,,,
162071.437738792,,,,,,,,,,,-82.7417755127,-16.8174438477,390.0788574219,,,,,,,,,,,,,,
162071454.648833,0.4733734131,-0.2393951416,-1.2213745117,,,,,,,,,,,,,,,,,,,,,,,,
1451923547000.0,,,,,,,,,,,,,,52.3943797778826,13.1323765497777,225.3515625,0.150000005960464,30.3226928710938,10.0,16.0,,,,,,,
162071541.498917,,,,,-0.0054842476,1.8514924404,-0.7330446774,,,,,,,,,,,,,,,,,,,,
162071.538469875,,,,,,,,,,,-85.4325714111,-14.4629974365,393.0216369629,,,,,,,,,,,,,,
162071559.436292,0.5704498291,-0.1254882812,-1.1850280762,,,,,,,,,,,,,,,,,,,,,,,,
162071642.528625,,,,,1.2998282080,-0.3050461944,-0.6084161953,,,,,,,,,,,,,,,,,,,,
162071.639501292,,,,,,,,,,,-84.0871734619,-13.7902984619,393.0216369629,,,,,,,,,,,,,,
162071663.686542,0.7947540283,-0.1524047852,-0.8556976318,,,,,,,,,,,,,,,,,,,,,,,,
162071743.569083,,,,,0.6275054676,-0.7831155680,0.3043005093,,,,,,,,,,,,,,,,,,,,
162071.739608625,,,,,,,,,,,-81.5645599365,-14.2948303223,391.8772277832,,,,,,,,,,,,,,
162071769.178208,0.3995513916,-0.1733398438,-0.9684295654,,,,,,,,,,,,,,,,,,,,,,,,
162071844.8585,,,,,0.9838848910,-4.2508450540,-0.2017941074,,,,,,,,,,,,,,,,,,,,
162071.840649875,,,,,,,,,,,-81.5645599365,-13.6221313477,389.5884399414,,,,,,,,,,,,,,
162071873.615333,0.5393676758,-0.0950469971,-1.3697967529,,,,,,,,,,,,,,,,,,,,,,,,
162071945.889,,,,,-0.1396244759,-1.4441648812,-0.2338484469,,,,,,,,,,,,,,,,,,,,
162071.941684,,,,,,,,,,,-78.3692474365,-12.4449005127,388.4440307617,,,,,,,,,,,,,,
162071979.02925,0.1661224365,-0.1727752686,-1.1783142090,,,,,,,,,,,,,,,,,,,,,,,,
162072046.948583,,,,,0.0486213320,0.0424097751,-0.0546414077,,,,,,,,,,,,,,,,,,,,
162072.042398167,,,,,,,,,,,-78.5374145508,-14.6311798096,387.9535522461,,,,,,,,,,,,,,
162072084.115875,0.0396270752,-0.1694946289,-0.9616394043,,,,,,,,,,,,,,,,,,,,,,,,
162072147.990458,,,,,0.4071531222,-0.0726148155,0.7881795688,,,,,,,,,,,,,,,,,,,,
162072.143431208,,,,,,,,,,,-78.7055969238,-14.4629974365,390.4058532715,,,,,,,,,,,,,,
162072188.602167,-0.0629882812,-0.2561340332,-0.8140258789,,,,,,,,,,,,,,,,,,,,,,,,
162072249.030542,,,,,0.0530552289,0.0339321344,-0.0286707933,,,,,,,,,,,,,,,,,,,,
162072.244477542,,,,,,,,,,,-79.0419464111,-13.4539489746,389.4249267578,,,,,,,,,,,,,,
162072293.906958,0.0318145752,-0.2043914795,-0.9795837402,,,,,,,,,,,,,,,,,,,,,,,,
162072349.608958,,,,,0.0146276786,0.0621629735,-0.0437892925,,,,,,,,,,,,,,,,,,,,
162072.345517792,,,,,,,,,,,-78.5374145508,-12.9494323730,390.5693359375,,,,,,,,,,,,,,
162072398.3325,0.0247802734,-0.1989746094,-0.9603881836,,,,,,,,,,,,,,,,,,,,,,,,
162072450.645625,,,,,-0.0029707562,0.0508903453,-0.0436878261,,,,,,,,,,,,,,,,,,,,
162072.446557125,,,,,,,,,,,-79.5464630127,-14.2948303223,389.2614440918,,,,,,,,,,,,,,
162072503.029083,0.0111236572,-0.2188262939,-1.0027160645,,,,,,,,,,,,,,,,,,,,,,,,
1451923548000.0,,,,,,,,,,,,,,52.3943797778826,13.1323765497777,225.3515625,0.0,34.972900390625,10.0,12.0,,,,,,,
162072551.69125,,,,,-0.0235993357,0.0243543419,-0.0329385090,,,,,,,,,,,,,,,,,,,,
162072.547610125,,,,,,,,,,,-79.2101135254,-13.6221313477,390.5693359375,,,,,,,,,,,,,,
162072607.3725,0.0196533203,-0.2156219482,-0.9803771973,,,,,,,,,,,,,,,,,,,,,,,,
162072652.75225,,,,,-0.0303754828,0.0503585120,-0.0127932932,,,,,,,,,,,,,,,,,,,,
162072.648648667,,,,,,,,,,,-78.8737640381,-11.6040344238,389.2614440918,,,,,,,,,,,,,,
162072711.853083,0.0096282959,-0.2123260498,-0.9654541016,,,,,,,,,,,,,,,,,,,,,,,,
162072753.78075,,,,,-0.0137062249,0.0240941510,-0.0377260737,,,,,,,,,,,,,,,,,,,,
162072.74968625,,,,,,,,,,,-79.0419464111,-13.1175994873,390.0788574219,,,,,,,,,,,,,,
162072816.961583,0.0110473633,-0.2287750244,-0.9410858154,,,,,,,,,,,,,,,,,,,,,,,,
162072854.819458,,,,,0.0203358981,0.0501888686,-0.0343744855,,,,,,,,,,,,,,,,,,,,
162072.850721583,,,,,,,,,,,-78.3692474365,-13.4539489746,389.7518920898,,,,,,,,,,,,,,
162072922.155208,0.0092926025,-0.2109069824,-0.9528961182,,,,,,,,,,,,,,,,,,,,,,,,
162072955.857125,,,,,-0.0095522262,0.0769802692,-0.0448178054,,,,,,,,,,,,,,,,,,,,
162072.951764792,,,,,,,,,,,-78.7055969238,-13.1175994873,388.7709960938,,,,,,,,,,,,,,
162073026.79625,0.0122985840,-0.2205657959,-0.9925231934,,,,,,,,,,,,,,,,,,,,,,,,
162073056.898375,,,,,0.0134034235,0.0610409838,-0.0485100119,,,,,,,,,,,,,,,,,,,,
162073.052803,,,,,,,,,,,-78.8737640381,-13.9584808350,388.9344787598,,,,,,,,,,,,,,
162073132.000958,0.0144500732,-0.2095947266,-1.0067138672,,,,,,,,,,,,,,,,,,,,,,,,
162073157.934875,,,,,0.0205955563,0.0537838698,-0.0509209716,,,,,,,,,,,,,,,,,,,,
162073.153103792,,,,,,,,,,,-79.0419464111,-13.4539489746,389.4249267578,,,,,,,,,,,,,,
162073236.329167,0.0262603760,-0.2089385986,-0.9732055664,,,,,,,,,,,,,,,,,,,,,,,,
162073258.9755,,,,,-0.0043289684,0.0415873910,-0.0614124947,,,,,,,,,,,,,,,,,,,,
162073.25415475,,,,,,,,,,,-78.8737640381,-13.2857818604,388.9344787598,,,,,,,,,,,,,,
162073341.578375,0.0040740967,-0.2270965576,-0.9641113281,,,,,,,,,,,,,,,,,,,,,,,,
162073360.012625,,,,,0.0009973538,0.0555474151,-0.0578923284,,,,,,,,,,,,,,,,,,,,
162073.354202792,,,,,,,,,,,-79.7146453857,-13.4539489746,389.7518920898,,,,,,,,,,,,,,
162073446.794083,0.0125427246,-0.2185668945,-1.0050811768,,,,,,,,,,,,,,,,,,,,,,,,
162073461.053458,,,,,0.0079809612,0.0812626322,-0.0614686874,,,,,,,,,,,,,,,,,,,,
162073.454514417,,,,,,,,,,,-80.0509796143,-12.4449005127,390.4058532715,,,,,,,,,,,,,,
1451923548999.99,,,,,,,,,,,,,,52.3943543388065,13.1323672458652,225.3515625,0.150000005960464,33.5678100585938,10.0,12.0,,,,,,,
162073549.925958,0.0303955078,-0.1968841553,-0.9579925537,,,,,,,,,,,,,,,,,,,,,,,,
162073561.324875,,,,,-0.0179624889,0.0442524163,-0.0436002081,,,,,,,,,,,,,,,,,,,,
162073.555587958,,,,,,,,,,,-80.3873291016,-13.7902984619,390.0788574219,,,,,,,,,,,,,,
162073654.965333,0.0145111084,-0.2265014648,-0.9837646484,,,,,,,,,,,,,,,,,,,,,,,,
162073662.365458,,,,,-0.0028080371,0.0579237537,-0.0377761411,,,,,,,,,,,,,,,,,,,,
162073.656626333,,,,,,,,,,,-79.5464630127,-12.9494323730,389.2614440918,,,,,,,,,,,,,,
162073759.307125,0.0040435791,-0.2205200195,-1.0354919434,,,,,,,,,,,,,,,,,,,,,,,,
162073763.407125,,,,,-0.0341531768,0.0411445073,-0.0352304254,,,,,,,,,,,,,,,,,,,,
162073.757668583,,,,,,,,,,,-78.5374145508,-13.9584808350,391.2232666016,,,,,,,,,,,,,,
162073864.437292,,,,,0.0119227059,0.0505236280,-0.0567788608,,,,,,,,,,,,,,,,,,,,
162073864.49625,0.0357208252,-0.1925811768,-0.9662475586,,,,,,,,,,,,,,,,,,,,,,,,
162073.858217667,,,,,,,,,,,-80.2191619873,-12.6130828857,388.2805175781,,,,,,,,,,,,,,
162073965.472042,,,,,0.0045859634,0.0530760016,-0.0543697652,,,,,,,,,,,,,,,,,,,,
162073.959173292,,,,,,,,,,,-78.8737640381,-14.2948303223,390.5693359375,,,,,,,,,,,,,,
162073969.741708,0.0278778076,-0.1965332031,-0.9793243408,,,,,,,,,,,,,,,,,,,,,,,,
162074066.512167,,,,,0.0082544678,0.0517995485,-0.0555745793,,,,,,,,,,,,,,,,,,,,
162074.060214583,,,,,,,,,,,-78.7055969238,-12.7812500000,389.4249267578,,,,,,,,,,,,,,
162074074.357958,0.0112609863,-0.2299194336,-1.0300292969,,,,,,,,,,,,,,,,,,,,,,,,
162074167.561458,,,,,0.0356882228,0.0581461277,-0.0699199628,,,,,,,,,,,,,,,,,,,,
162074.161250583,,,,,,,,,,,-80.5555114746,-12.6130828857,389.5884399414,,,,,,,,,,,,,,
162074179.397958,0.0222930908,-0.1938171387,-0.9551391602,,,,,,,,,,,,,,,,,,,,,,,,
162074268.601375,,,,,0.0375814640,0.0862483361,-0.0474623243,,,,,,,,,,,,,,,,,,,,
162074.262291417,,,,,,,,,,,-80.0509796143,-13.1175994873,390.4058532715,,,,,,,,,,,,,,
162074284.582667,0.0248870850,-0.1953582764,-0.9489746094,,,,,,,,,,,,,,,,,,,,,,,,
162074368.819792,,,,,-0.0189912680,0.0501774170,-0.0459552415,,,,,,,,,,,,,,,,,,,,
162074.363330292,,,,,,,,,,,-79.0419464111,-13.4539489746,391.0598144531,,,,,,,,,,,,,,
162074388.912542,0.0104827881,-0.2285003662,-1.0188903809,,,,,,,,,,,,,,,,,,,,,,,,
162074469.860375,,,,,-0.0070371369,0.0357476113,-0.0543074473,,,,,,,,,,,,,,,,,,,,
162074.464368583,,,,,,,,,,,-80.2191619873,-12.2767333984,390.2423706055,,,,,,,,,,,,,,
162074494.043625,0.0044860840,-0.2227172852,-0.9704895020,,,,,,,,,,,,,,,,,,,,,,,,
1451923549999.99,,,,,,,,,,,,,,52.3943543388065,13.1323672458652,225.3515625,0.0,34.821044921875,5.0,12.0,,,,,,,
162074570.91125,,,,,0.0157027967,0.0504567826,-0.0662570511,,,,,,,,,,,,,,,,,,,,
162074.565151583,,,,,,,,,,,-80.8918609619,-12.6130828857,389.9154052734,,,,,,,,,,,,,,
162074598.477333,0.0150909424,-0.1983337402,-0.9525756836,,,,,,,,,,,,,,,,,,,,,,,,
162074671.947917,,,,,0.0361036759,0.0699314144,-0.0758265878,,,,,,,,,,,,,,,,,,,,
162074.6662065,,,,,,,,,,,-80.2191619873,-12.9494323730,388.9344787598,,,,,,,,,,,,,,
162074703.690583,0.0164794922,-0.2321472168,-0.9778442383,,,,,,,,,,,,,,,,,,,,,,,,
162074772.984875,,,,,0.0227796147,0.0443094079,-0.0521204594,,,,,,,,,,,,,,,,,,,,
162074.7668645,,,,,,,,,,,-79.5464630127,-13.6221313477,390.2423706055,,,,,,,,,,,,,,
162074808.8815,0.0218963623,-0.2205200195,-0.9884643555,,,,,,,,,,,,,,,,,,,,,,,,
162074874.021542,,,,,-0.0103764746,0.0487712680,-0.0495537047,,,,,,,,,,,,,,,,,,,,
162074.867905125,,,,,,,,,,,-79.8828125000,-12.6130828857,388.9344787598,,,,,,,,,,,,,,
162074914.105875,0.0281829834,-0.1994628906,-0.9783935547,,,,,,,,,,,,,,,,,,,,,,,,
162074975.057708,,,,,0.0067487165,0.0470727038,-0.0413849907,,,,,,,,,,,,,,,,,,,,
162074.968942333,,,,,,,,,,,-81.7327270508,-14.1266479492,389.7518920898,,,,,,,,,,,,,,
162075019.300958,0.0265960693,-0.2013854980,-0.9800567627,,,,,,,,,,,,,,,,,,,,,,,,
162075076.097375,,,,,0.0174149430,0.0657169620,-0.0674421578,,,,,,,,,,,,,,,,,,,,
162075.069984,,,,,,,,,,,-80.5555114746,-13.9584808350,388.9344787598,,,,,,,,,,,,,,
162075123.678,0.0179290771,-0.2216644287,-0.9889526367,,,,,,,,,,,,,,,,,,,,,,,,
162075177.133917,,,,,0.0058171428,0.0530411142,-0.0543772221,,,,,,,,,,,,,,,,,,,,
162075.171037917,,,,,,,,,,,-79.3782958984,-13.4539489746,389.7518920898,,,,,,,,,,,,,,
162075228.959417,0.0100555420,-0.2049102783,-0.9953002930,,,,,,,,,,,,,,,,,,,,,,,,
162075278.170292,,,,,-0.0164309050,0.0571122885,-0.0329664722,,,,,,,,,,,,,,,,,,,,
162075.272074792,,,,,,,,,,,-79.8828125000,-12.9494323730,390.2423706055,,,,,,,,,,,,,,
162075333.819208,0.0260162354,-0.2222442627,-1.0027008057,,,,,,,,,,,,,,,,,,,,,,,,
162075379.210583,,,,,-0.0670575973,0.1043072315,0.0028186897,,,,,,,,,,,,,,,,,,,,
162075.373117292,,,,,,,,,,,-79.3782958984,-13.4539489746,389.7518920898,,,,,,,,,,,,,,
162075439.061417,0.0122985840,-0.2067718506,-0.9661254883,,,,,,,,,,,,,,,,,,,,,,,,
162075479.876292,,,,,0.0170178657,0.0562598107,-0.0556254457,,,,,,,,,,,,,,,,,,,,
162075.474013917,,,,,,,,,,,-79.3782958984,-11.7722167969,388.7709960938,,,,,,,,,,,,,,
1451923550999.99,,,,,,,,,,,,,,52.3943543388065,13.1323672458652,225.3515625,0.0,34.0745849609375,5.0,12.0,,,,,,,
162075544.281583,0.0406494141,-0.2069549561,-0.9914398193,,,,,,,,,,,,,,,,,,,,,,,,
162075580.917542,,,,,0.0103085639,0.0422683612,-0.0425906037,,,,,,,,,,,,,,,,,,,,
162075.575052583,,,,,,,,,,,-80.3873291016,-14.1266479492,389.4249267578,,,,,,,,,,,,,,
162075649.538833,0.0171203613,-0.2128143311,-1.0069580078,,,,,,,,,,,,,,,,,,,,,,,,
162075681.953542,,,,,0.0010151970,0.0543947989,-0.0638026818,,,,,,,,,,,,,,,,,,,,
162075.676092833,,,,,,,,,,,-79.8828125000,-12.9494323730,389.9154052734,,,,,,,,,,,,,,
162075754.757792,0.0080718994,-0.2259368896,-0.9681243896,,,,,,,,,,,,,,,,,,,,,,,,
162075782.994042,,,,,0.0209204619,0.0608886510,-0.0627382163,,,,,,,,,,,,,,,,,,,,
162075.777130667,,,,,,,,,,,-79.7146453857,-13.4539489746,390.4058532715,,,,,,,,,,,,,,
162075859.825,0.0303955078,-0.1931762695,-0.9793090820,,,,,,,,,,,,,,,,,,,,,,,,
162075884.029,,,,,-0.0111852766,0.0559535471,-0.0720009569,,,,,,,,,,,,,,,,,,,,
162075.878166708,,,,,,,,,,,-79.8828125000,-12.9494323730,389.9154052734,,,,,,,,,,,,,,
162075964.373583,0.0428161621,-0.2063903809,-0.9563140869,,,,,,,,,,,,,,,,,,,,,,,,
162075985.066375,,,,,-0.0078824242,0.0382725543,-0.0885759389,,,,,,,,,,,,,,,,,,,,
162075.979208625,,,,,,,,,,,-79.5464630127,-12.6130828857,388.6074829102,,,,,,,,,,,,,,
162076069.341083,0.0206756592,-0.2400207520,-0.9809722900,,,,,,,,,,,,,,,,,,,,,,,,
162076086.103167,,,,,-0.0028402613,0.0613903905,-0.0224097016,,,,,,,,,,,,,,,,,,,,
162076.080214792,,,,,,,,,,,-79.7146453857,-13.4539489746,388.7709960938,,,,,,,,,,,,,,
162076173.674208,0.0221557617,-0.1840057373,-0.9750213623,,,,,,,,,,,,,,,,,,,,,,,,
162076187.143292,,,,,-0.0040751691,0.0567823229,-0.0377689506,,,,,,,,,,,,,,,,,,,,
162076.181253458,,,,,,,,,,,-79.0419464111,-13.4539489746,390.0788574219,,,,,,,,,,,,,,
162076278.378833,0.0302581787,-0.2002716064,-0.9644012451,,,,,,,,,,,,,,,,,,,,,,,,
162076288.180333,,,,,0.0034163030,0.0589394833,-0.0413591580,,,,,,,,,,,,,,,,,,,,
162076.282292875,,,,,,,,,,,-80.0509796143,-12.1085662842,390.4058532715,,,,,,,,,,,,,,
162076383.437125,0.0204315186,-0.2300415039,-0.9776000977,,,,,,,,,,,,,,,,,,,,,,,,
162076388.528792,,,,,-0.0207518838,0.0807233421,-0.0199284344,,,,,,,,,,,,,,,,,,,,
162076.383343333,,,,,,,,,,,-79.7146453857,-13.1175994873,390.0788574219,,,,,,,,,,,,,,
162076488.411375,0.0196990967,-0.2256622314,-1.0406799316,,,,,,,,,,,,,,,,,,,,,,,,
162076489.746417,,,,,-0.0027899276,0.0567711376,-0.0436862282,,,,,,,,,,,,,,,,,,,,
162076.484382,,,,,,,,,,,-80.3873291016,-12.7812500000,388.7709960938,,,,,,,,,,,,,,
1451923551999.99,,,,,,,,,,,,,,52.3943543388065,13.1323672458652,225.3515625,0.0,33.983642578125,5.0,8.0,,,,,,,
162076590.78225,,,,,0.0117860857,0.0516237798,-0.0378674875,,,,,,,,,,,,,,,,,,,,
162076593.666375,0.0302429199,-0.1932830811,-0.9458618164,,,,,,,,,,,,,,,,,,,,,,,,
162076.585424167,,,,,,,,,,,-80.3873291016,-13.1175994873,391.0598144531,,,,,,,,,,,,,,
162076691.823583,,,,,0.0213574867,0.0419399935,-0.0391122490,,,,,,,,,,,,,,,,,,,,
162076.686462333,,,,,,,,,,,-79.8828125000,-13.9584808350,389.9154052734,,,,,,,,,,,,,,
162076697.919833,0.0096893311,-0.2317810059,-0.9826354980,,,,,,,,,,,,,,,,,,,,,,,,
162076792.86025,,,,,0.0293155446,0.0547442057,-0.0580643686,,,,,,,,,,,,,,,,,,,,
162076.787508833,,,,,,,,,,,-79.7146453857,-12.7812500000,388.7709960938,,,,,,,,,,,,,,
162076803.167958,0.0129699707,-0.2224273682,-1.0240783691,,,,,,,,,,,,,,,,,,,,,,,,
162076893.898083,,,,,0.0551812304,0.0435725112,-0.0948649938,,,,,,,,,,,,,,,,,,,,
162076.888549875,,,,,,,,,,,-79.7146453857,-12.4449005127,390.7328186035,,,,,,,,,,,,,,
162076908.425542,0.0168304443,-0.1985626221,-0.9679870605,,,,,,,,,,,,,,,,,,,,,,,,
162076995.042833,,,,,0.0150961286,0.0600481573,-0.1028872340,,,,,,,,,,,,,,,,,,,,
162076.989591917,,,,,,,,,,,-80.2191619873,-13.9584808350,391.5502624512,,,,,,,,,,,,,,
162077013.627625,0.0351104736,-0.1949615479,-0.9738464355,,,,,,,,,,,,,,,,,,,,,,,,
162077096.079667,,,,,0.0221343308,0.0654871312,-0.0450151456,,,,,,,,,,,,,,,,,,,,
162077.090628625,,,,,,,,,,,-79.8828125000,-12.2767333984,391.5502624512,,,,,,,,,,,,,,
162077118.830792,0.0268707275,-0.2356262207,-1.0172119141,,,,,,,,,,,,,,,,,,,,,,,,
162077197.116833,,,,,-0.0078709726,0.0487204016,-0.0542962620,,,,,,,,,,,,,,,,,,,,
162077.191672167,,,,,,,,,,,-79.0419464111,-12.1085662842,390.7328186035,,,,,,,,,,,,,,
162077224.029,0.0179443359,-0.2311401367,-0.9939727783,,,,,,,,,,,,,,,,,,,,,,,,
162077298.145667,,,,,-0.0102571649,0.0523044838,-0.0507345503,,,,,,,,,,,,,,,,,,,,
162077.292710125,,,,,,,,,,,-80.8918609619,-14.6311798096,390.5693359375,,,,,,,,,,,,,,
162077329.1925,0.0360107422,-0.1935272217,-0.9750213623,,,,,,,,,,,,,,,,,,,,,,,,
162077399.174417,,,,,0.0205486847,0.0526030242,-0.0497393270,,,,,,,,,,,,,,,,,,,,
162077.393737167,,,,,,,,,,,-78.3692474365,-12.7812500000,387.4630737305,,,,,,,,,,,,,,
162077434.059958,0.0231628418,-0.2245330811,-1.0325927734,,,,,,,,,,,,,,,,,,,,,,,,
162077500.215125,,,,,0.0009286443,0.0543569821,-0.0543468620,,,,,,,,,,,,,,,,,,,,
162077.494776917,,,,,,,,,,,-79.2101135254,-11.6040344238,389.2614440918,,,,,,,,,,,,,,
162077538.042875,-0.0020294189,-0.2454681396,-0.9753417969,,,,,,,,,,,,,,,,,,,,,,,,
162077601.246833,,,,,-0.0051628041,0.0545599149,-0.0614015758,,,,,,,,,,,,,,,,,,,,
162077.595621458,,,,,,,,,,,-79.8828125000,-11.6040344238,387.6265869141,,,,,,,,,,,,,,
162077641.468708,0.0344696045,-0.1983795166,-0.9705505371,,,,,,,,,,,,,,,,,,,,,,,,
162077702.296292,,,,,-0.0077367493,0.0569010999,-0.0412925790,,,,,,,,,,,,,,,,,,,,
162077.69669775,,,,,,,,,,,-80.0509796143,-13.1175994873,388.7709960938,,,,,,,,,,,,,,
162077744.791667,0.0302429199,-0.2261199951,-1.0330657959,,,,,,,,,,,,,,,,,,,,,,,,
1451923552999.99,,,,,,,,,,,,,,52.3943543388065,13.1323672458652,225.3515625,0.0,34.4767456054688,5.0,8.0,,,,,,,
162077803.42675,,,,,0.0123453495,0.0611520376,-0.0674136619,,,,,,,,,,,,,,,,,,,,
162077.797737333,,,,,,,,,,,-79.7146453857,-12.4449005127,389.4249267578,,,,,,,,,,,,,,
162077850.030125,0.0232086182,-0.2366485596,-0.9840240479,,,,,,,,,,,,,,,,,,,,,,,,
162077904.179667,,,,,0.0097096190,0.0576648945,-0.0603080818,,,,,,,,,,,,,,,,,,,,
162077.898787042,,,,,,,,,,,-80.0509796143,-13.1175994873,390.0788574219,,,,,,,,,,,,,,
162077955.25375,0.0296783447,-0.2031555176,-0.9774627686,,,,,,,,,,,,,,,,,,,,,,,,
162078004.70775,,,,,0.0025537052,0.0660980604,-0.0578968558,,,,,,,,,,,,,,,,,,,,
162077.9991625,,,,,,,,,,,-78.7055969238,-13.1175994873,389.0979614258,,,,,,,,,,,,,,
162078059.975208,0.0301513672,-0.2149810791,-1.0157012939,,,,,,,,,,,,,,,,,,,,,,,,
162078105.746917,,,,,0.0119376196,0.0551713767,-0.0425943322,,,,,,,,,,,,,,,,,,,,
162078.100204792,,,,,,,,,,,-79.5464630127,-11.6040344238,389.9154052734,,,,,,,,,,,,,,
162078164.42025,0.0348205566,-0.2210235596,-0.9801330566,,,,,,,,,,,,,,,,,,,,,,,,
162078206.582375,,,,,0.0185888644,0.0714582047,-0.0414451781,,,,,,,,,,,,,,,,,,,,
162078.201243958,,,,,,,,,,,-79.7146453857,-13.1175994873,390.0788574219,,,,,,,,,,,,,,
162078269.641875,0.0292816162,-0.2228088379,-0.9953308105,,,,,,,,,,,,,,,,,,,,,,,,
162078307.623292,,,,,-0.0113975305,0.0605011610,-0.0329955006,,,,,,,,,,,,,,,,,,,,
162078.302275667,,,,,,,,,,,-79.5464630127,-12.6130828857,387.9535522461,,,,,,,,,,,,,,
162078373.074333,0.0243225098,-0.1992034912,-0.9589691162,,,,,,,,,,,,,,,,,,,,,,,,
162078408.659292,,,,,-0.0249522215,0.0573996436,-0.0435517386,,,,,,,,,,,,,,,,,,,,
162078.403314917,,,,,,,,,,,-81.2282104492,-11.9403839111,389.9154052734,,,,,,,,,,,,,,
162078478.232917,0.0308380127,-0.2301788330,-0.9913330078,,,,,,,,,,,,,,,,,,,,,,,,
162078509.685208,,,,,-0.0039529300,0.0579964580,-0.0472242377,,,,,,,,,,,,,,,,,,,,
162078.504338792,,,,,,,,,,,-79.5464630127,-12.6130828857,388.6074829102,,,,,,,,,,,,,,
162078582.750167,0.0367584229,-0.2042694092,-0.9736328125,,,,,,,,,,,,,,,,,,,,,,,,
162078610.723667,,,,,-0.0128313764,0.0546459350,-0.0306260862,,,,,,,,,,,,,,,,,,,,
162078.605376083,,,,,,,,,,,-80.3873291016,-12.7812500000,389.7518920898,,,,,,,,,,,,,,
162078687.884417,0.0296936035,-0.1981048584,-0.9601135254,,,,,,,,,,,,,,,,,,,,,,,,
162078711.230083,,,,,0.0092654037,0.0470266312,-0.0473094589,,,,,,,,,,,,,,,,,,,,
162078.7065055,,,,,,,,,,,-80.5555114746,-11.9403839111,389.2614440918,,,,,,,,,,,,,,
1451923553999.99,,,,,,,,,,,,,,52.3943543388065,13.1323672458652,225.3515625,0.0,33.79443359375,5.0,6.0,,,,,,,
162078792.709042,0.0276947021,-0.2257232666,-0.9924926758,,,,,,,,,,,,,,,,,,,,,,,,
162078812.26525,,,,,-0.0290364454,0.0468902773,-0.0364408321,,,,,,,,,,,,,,,,,,,,
162078.80754475,,,,,,,,,,,-82.0690765381,-13.4539489746,388.7709960938,,,,,,,,,,,,,,
162078897.923458,0.0269470215,-0.2253265381,-1.0325775146,,,,,,,,,,,,,,,,,,,,,,,,
162078913.3055,,,,,0.0071497886,0.0576917924,-0.0496557038,,,,,,,,,,,,,,,,,,,,
162078.908562792,,,,,,,,,,,-79.5464630127,-12.2767333984,390.2423706055,,,,,,,,,,,,,,
162079003.124208,0.0405273438,-0.2023315430,-0.9880981445,,,,,,,,,,,,,,,,,,,,,,,,
162079014.345875,,,,,0.0094968324,0.0552507389,-0.0449432402,,,,,,,,,,,,,,,,,,,,
162079.009605667,,,,,,,,,,,-79.7146453857,-13.1175994873,390.7328186035,,,,,,,,,,,,,,
162079108.329333,0.0263977051,-0.2153015137,-0.9692077637,,,,,,,,,,,,,,,,,,,,,,,,
162079115.385583,,,,,-0.0002916161,0.0578776810,-0.0437008756,,,,,,,,,,,,,,,,,,,,
162079.110648042,,,,,,,,,,,-79.5464630127,-11.6040344238,389.9154052734,,,,,,,,,,,,,,
162079213.061,0.0334167480,-0.2105255127,-0.9843597412,,,,,,,,,,,,,,,,,,,,,,,,
162079216.423833,,,,,-0.0098702076,0.0652375930,-0.0495489110,,,,,,,,,,,,,,,,,,,,
162079.211685417,,,,,,,,,,,-81.5645599365,-13.2857818604,389.2614440918,,,,,,,,,,,,,,
162079317.465583,,,,,-0.0081343592,0.0439634633,-0.0412963074,,,,,,,,,,,,,,,,,,,,
162079317.54475,0.0276947021,-0.2180480957,-1.0270996094,,,,,,,,,,,,,,,,,,,,,,,,
162079.312727375,,,,,,,,,,,-79.7146453857,-13.4539489746,389.7518920898,,,,,,,,,,,,,,
162079418.501917,,,,,0.0305576430,0.0581951298,-0.0474330295,,,,,,,,,,,,,,,,,,,,
162079.413771458,,,,,,,,,,,-80.0509796143,-12.1085662842,389.4249267578,,,,,,,,,,,,,,
162079422.742375,0.0218658447,-0.2305297852,-0.9785308838,,,,,,,,,,,,,,,,,,,,,,,,
162079519.539167,,,,,0.0104853978,0.0435064648,-0.0579557116,,,,,,,,,,,,,,,,,,,,
162079.514816042,,,,,,,,,,,-80.2191619873,-12.6130828857,388.6074829102,,,,,,,,,,,,,,
162079528.002,0.0444488525,-0.2026977539,-0.9733886719,,,,,,,,,,,,,,,,,,,,,,,,
162079620.575708,,,,,-0.0139975747,0.0547093183,-0.0377100947,,,,,,,,,,,,,,,,,,,,
162079.615852833,,,,,,,,,,,-80.8918609619,-13.6221313477,389.5884399414,,,,,,,,,,,,,,
162079633.219417,0.0436706543,-0.1902618408,-0.9678649902,,,,,,,,,,,,,,,,,,,,,,,,
162079721.727083,,,,,-0.0006133260,0.0484538192,-0.0401578061,,,,,,,,,,,,,,,,,,,,
162079.716904917,,,,,,,,,,,-80.3873291016,-13.1175994873,389.7518920898,,,,,,,,,,,,,,
162079738.072083,0.0199737549,-0.2275238037,-0.9904022217,,,,,,,,,,,,,,,,,,,,,,,,
1451923554999.99,,,,,,,,,,,,,,52.3943543388065,13.1323672458652,225.3515625,0.0,34.2786865234375,5.0,6.0,,,,,,,
162079822.304333,,,,,0.0072509887,0.0623773580,-0.0449264623,,,,,,,,,,,,,,,,,,,,
162079.817693625,,,,,,,,,,,-78.2010650635,-12.9494323730,391.8772277832,,,,,,,,,,,,,,
162079843.27975,0.0405883789,-0.1999969482,-0.9641418457,,,,,,,,,,,,,,,,,,,,,,,,
162079923.342042,,,,,0.0008857674,0.0578190915,-0.0377985117,,,,,,,,,,,,,,,,,,,,
162079.918735417,,,,,,,,,,,-79.2101135254,-13.2857818604,393.5120849609,,,,,,,,,,,,,,
162079948.468958,0.0365600586,-0.2107238770,-1.0037994385,,,,,,,,,,,,,,,,,,,,,,,,
162080024.383083,,,,,-0.0004977448,0.0508253641,-0.0448846507,,,,,,,,,,,,,,,,,,,,
162080.019777292,,,,,,,,,,,-79.3782958984,-11.4358673096,390.0788574219,,,,,,,,,,,,,,
162080053.678792,0.0321960449,-0.2137298584,-0.9616088867,,,,,,,,,,,,,,,,,,,,,,,,
162080125.419875,,,,,-0.0040898165,0.0556155920,-0.0401333050,,,,,,,,,,,,,,,,,,,,
162080.120818417,,,,,,,,,,,-78.8737640381,-11.2676849365,388.9344787598,,,,,,,,,,,,,,
162080158.910958,0.0338439941,-0.1993103027,-0.9833679199,,,,,,,,,,,,,,,,,,,,,,,,
162080226.507917,,,,,0.0030333405,0.0471680450,-0.0389987984,,,,,,,,,,,,,,,,,,,,
162080.221869833,,,,,,,,,,,-79.3782958984,-13.4539489746,391.0598144531,,,,,,,,,,,,,,
162080264.142208,0.0285491943,-0.2223968506,-1.0404052734,,,,,,,,,,,,,,,,,,,,,,,,
162080327.3205,,,,,0.0073196983,0.0635677910,-0.0484719287,,,,,,,,,,,,,,,,,,,,
162080.322907,,,,,,,,,,,-80.5555114746,-13.6221313477,389.2614440918,,,,,,,,,,,,,,
162080369.326542,0.0257720947,-0.2239990234,-0.9906005859,,,,,,,,,,,,,,,,,,,,,,,,
162080428.358583,,,,,-0.0029454562,0.0520616035,-0.0425056489,,,,,,,,,,,,,,,,,,,,
162080.423945708,,,,,,,,,,,-78.7055969238,-12.4449005127,389.4249267578,,,,,,,,,,,,,,
162080474.178917,0.0356903076,-0.2003631592,-0.9693756104,,,,,,,,,,,,,,,,,,,,,,,,
162080529.400125,,,,,-0.0148244862,0.0630439472,-0.0542475261,,,,,,,,,,,,,,,,,,,,
162080.524984667,,,,,,,,,,,-79.5464630127,-12.2767333984,388.9344787598,,,,,,,,,,,,,,
162080579.303125,0.0258026123,-0.2212524414,-1.0112457275,,,,,,,,,,,,,,,,,,,,,,,,
1451923555999.99,,,,,,,,,,,,,,52.3943543388065,13.1323672458652,225.3515625,0.0,35.2852172851562,5.0,6.0,,,,,,,
162080630.441375,,,,,-0.0079066590,0.0510251012,-0.0424760878,,,,,,,,,,,,,,,,,,,,
162080.626027375,,,,,,,,,,,-79.7146453857,-13.7902984619,389.0979614258,,,,,,,,,,,,,,
162080684.511,0.0334320068,-0.2164459229,-0.9604187012,,,,,,,,,,,,,,,,,,,,,,,,
162080731.478375,,,,,0.0240976131,0.0443126037,-0.0615837360,,,,,,,,,,,,,,,,,,,,
162080.726698167,,,,,,,,,,,-80.2191619873,-11.6040344238,389.2614440918,,,,,,,,,,,,,,
162080789.744125,0.0203552246,-0.2210998535,-0.9571685791,,,,,,,,,,,,,,,,,,,,,,,,
162080831.882625,,,,,0.0204472182,0.0479174585,-0.0544683022,,,,,,,,,,,,,,,,,,,,
162080.82773575,,,,,,,,,,,-80.0509796143,-12.4449005127,389.0979614258,,,,,,,,,,,,,,
162080894.9445,0.0293579102,-0.2207794189,-1.0183410645,,,,,,,,,,,,,,,,,,,,,,,,
162080932.919833,,,,,-0.0054767908,0.0509412116,-0.0389452688,,,,,,,,,,,,,,,,,,,,
162080.928774458,,,,,,,,,,,-78.2010650635,-12.2767333984,389.5884399414,,,,,,,,,,,,,,
162081000.145833,0.0375671387,-0.2036285400,-0.9527740479,,,,,,,,,,,,,,,,,,,,,,,,
162081033.960125,,,,,-0.0054983624,0.0509316243,-0.0365814470,,,,,,,,,,,,,,,,,,,,
162081.029812083,,,,,,,,,,,-79.5464630127,-11.9403839111,390.5693359375,,,,,,,,,,,,,,
162081105.35375,0.0397949219,-0.2038269043,-0.9757690430,,,,,,,,,,,,,,,,,,,,,,,,
162081134.997167,,,,,0.0011563445,0.0614186200,-0.0555269087,,,,,,,,,,,,,,,,,,,,
162081.130848417,,,,,,,,,,,-79.7146453857,-12.1085662842,388.1170349121,,,,,,,,,,,,,,
162081210.544167,0.0241088867,-0.2260284424,-1.0295104980,,,,,,,,,,,,,,,,,,,,,,,,
162081236.03825,,,,,0.0035175032,0.0601437648,-0.0484506234,,,,,,,,,,,,,,,,,,,,
162081.231714167,,,,,,,,,,,-79.8828125000,-11.9403839111,389.2614440918,,,,,,,,,,,,,,
162081315.795958,0.0374755859,-0.1922760010,-0.9892425537,,,,,,,,,,,,,,,,,,,,,,,,
162081336.929208,,,,,0.0010623350,0.0590571951,-0.0531633533,,,,,,,,,,,,,,,,,,,,
162081.332756542,,,,,,,,,,,-80.5555114746,-11.2676849365,388.6074829102,,,,,,,,,,,,,,
162081421.068167,0.0299377441,-0.2061157227,-0.9684600830,,,,,,,,,,,,,,,,,,,,,,,,
162081437.966375,,,,,-0.0054443002,0.0509553264,-0.0424910015,,,,,,,,,,,,,,,,,,,,
162081.433819583,,,,,,,,,,,-80.5555114746,-13.6221313477,390.5693359375,,,,,,,,,,,,,,
162081526.28,0.0319519043,-0.2208251953,-1.0202331543,,,,,,,,,,,,,,,,,,,,,,,,
162081539.002833,,,,,0.0169888372,0.0574076331,-0.0485334477,,,,,,,,,,,,,,,,,,,,
162081.534860583,,,,,,,,,,,-79.7146453857,-12.1085662842,390.0788574219,,,,,,,,,,,,,,
162081631.484583,0.0361328125,-0.2121124268,-0.9554290771,,,,,,,,,,,,,,,,,,,,,,,,
162081640.043875,,,,,0.0040621196,0.0377617600,-0.0484644718,,,,,,,,,,,,,,,,,,,,
162081.635898042,,,,,,,,,,,-79.8828125000,-13.9584808350,389.5884399414,,,,,,,,,,,,,,
1451923556999.99,,,,,,,,,,,,,,52.3943543388065,13.1323672458652,225.3515625,0.0,33.9691162109375,5.0,6.0,,,,,,,
162081736.708917,0.0260467529,-0.2151947021,-0.9986267090,,,,,,,,,,,,,,,,,,,,,,,,
162081741.087083,,,,,-0.0056935721,0.0438843674,-0.0389473994,,,,,,,,,,,,,,,,,,,,
162081.736812083,,,,,,,,,,,-79.0419464111,-13.1175994873,390.0788574219,,,,,,,,,,,,,,
162081841.896917,0.0277709961,-0.2202301025,-1.0337524414,,,,,,,,,,,,,,,,,,,,,,,,
162081842.070042,,,,,-0.0059202071,0.0710470126,-0.0578433262,,,,,,,,,,,,,,,,,,,,
162081.837848625,,,,,,,,,,,-80.7236785889,-12.1085662842,392.3676757812,,,,,,,,,,,,,,
162081943.1105,,,,,0.0157504673,0.0585999303,-0.0437975483,,,,,,,,,,,,,,,,,,,,
162081947.005583,0.0465698242,-0.1982116699,-0.9465484619,,,,,,,,,,,,,,,,,,,,,,,,
162081.9388895,,,,,,,,,,,-80.3873291016,-13.4539489746,389.4249267578,,,,,,,,,,,,,,
162082044.159333,,,,,-0.0001904160,0.0625632466,-0.0389719004,,,,,,,,,,,,,,,,,,,,
162082.039931833,,,,,,,,,,,-79.3782958984,-12.4449005127,390.0788574219,,,,,,,,,,,,,,
162082052.198667,0.0221405029,-0.2052307129,-0.9670410156,,,,,,,,,,,,,,,,,,,,,,,,
162082145.200083,,,,,0.0108252172,0.0552584621,-0.0555884277,,,,,,,,,,,,,,,,,,,,
162082.140972708,,,,,,,,,,,-78.7055969238,-13.1175994873,390.7328186035,,,,,,,,,,,,,,
162082156.893708,0.0240020752,-0.2236175537,-1.0197753906,,,,,,,,,,,,,,,,,,,,,,,,
162082246.223,,,,,-0.0124739802,0.0617648309,-0.0459893299,,,,,,,,,,,,,,,,,,,,
162082.241157875,,,,,,,,,,,-80.2191619873,-13.2857818604,391.5502624512,,,,,,,,,,,,,,
162082261.913542,0.0461120605,-0.1969299316,-0.9531860352,,,,,,,,,,,,,,,,,,,,,,,,
162082347.273417,,,,,-0.0069607041,0.0427429365,-0.0389402088,,,,,,,,,,,,,,,,,,,,
162082.341653958,,,,,,,,,,,-80.2191619873,-12.2767333984,388.6074829102,,,,,,,,,,,,,,
162082366.792,0.0435791016,-0.2053680420,-0.9731445312,,,,,,,,,,,,,,,,,,,,,,,,
162082448.314,,,,,0.0121000724,0.0587237673,-0.0485030877,,,,,,,,,,,,,,,,,,,,
162082.442691708,,,,,,,,,,,-81.3963775635,-13.1175994873,389.4249267578,,,,,,,,,,,,,,
162082471.989375,0.0211029053,-0.2129058838,-1.0026702881,,,,,,,,,,,,,,,,,,,,,,,,
162082549.350458,,,,,0.0008636631,0.0543282199,-0.0472551304,,,,,,,,,,,,,,,,,,,,
162082.5437295,,,,,,,,,,,-79.2101135254,-12.6130828857,390.2423706055,,,,,,,,,,,,,,
162082576.447083,0.0345764160,-0.2125244141,-0.9712982178,,,,,,,,,,,,,,,,,,,,,,,,
162082650.386375,,,,,-0.0111338776,0.0652583657,-0.0459957215,,,,,,,,,,,,,,,,,,,,
162082.644767583,,,,,,,,,,,-80.7236785889,-12.7812500000,390.0788574219,,,,,,,,,,,,,,
162082681.707667,0.0357208252,-0.2198028564,-0.9824981689,,,,,,,,,,,,,,,,,,,,,,,,
1451923557999.99,,,,,,,,,,,,,,52.3943543388065,13.1323672458652,225.3515625,0.0,33.2715454101562,5.0,6.0,,,,,,,
162082751.438542,,,,,-0.0064547035,0.0592095279,-0.0389354151,,,,,,,,,,,,,,,,,,,,
162082.744956083,,,,,,,,,,,-81.2282104492,-13.2857818604,390.5693359375,,,,,,,,,,,,,,
162082786.935958,0.0297088623,-0.2123870850,-0.9869842529,,,,,,,,,,,,,,,,,,,,,,,,
162082852.47975,,,,,0.0122047346,0.0610902522,-0.0520482877,,,,,,,,,,,,,,,,,,,,
162082.845993167,,,,,,,,,,,-80.3873291016,-13.4539489746,390.7328186035,,,,,,,,,,,,,,
162082892.000542,0.0319213867,-0.1930084229,-0.9598388672,,,,,,,,,,,,,,,,,,,,,,,,
162082953.520208,,,,,-0.0016530241,0.0543742926,-0.0413306622,,,,,,,,,,,,,,,,,,,,
162082.9470345,,,,,,,,,,,-80.3873291016,-12.4449005127,391.3867797852,,,,,,,,,,,,,,
162082997.211958,0.0364837646,-0.2295532227,-0.9917907715,,,,,,,,,,,,,,,,,,,,,,,,
162083054.558167,,,,,0.0023084280,0.0636697901,-0.0389862815,,,,,,,,,,,,,,,,,,,,
162083.048076417,,,,,,,,,,,-80.0509796143,-12.4449005127,388.7709960938,,,,,,,,,,,,,,
162083102.401417,0.0316772461,-0.2295837402,-1.0221557617,,,,,,,,,,,,,,,,,,,,,,,,
162083155.598958,,,,,-0.0220749423,0.0348908724,-0.0293973037,,,,,,,,,,,,,,,,,,,,
162083.149114292,,,,,,,,,,,-79.8828125000,-12.2767333984,391.5502624512,,,,,,,,,,,,,,
162083207.664833,0.0329742432,-0.2024536133,-0.9821929932,,,,,,,,,,,,,,,,,,,,,,,,
162083256.635667,,,,,0.0058751997,0.0577077713,-0.0449203371,,,,,,,,,,,,,,,,,,,,
162083.249815417,,,,,,,,,,,-79.8828125000,-12.6130828857,389.5884399414,,,,,,,,,,,,,,
162083312.485958,0.0372009277,-0.2162170410,-0.9670410156,,,,,,,,,,,,,,,,,,,,,,,,
162083357.671875,,,,,-0.6555685276,0.1244793451,-0.2571665528,,,,,,,,,,,,,,,,,,,,
162083.350852542,,,,,,,,,,,-81.5645599365,-11.9403839111,389.5884399414,,,,,,,,,,,,,,
162083417.207167,0.0466918945,-0.1473388672,-0.7835998535,,,,,,,,,,,,,,,,,,,,,,,,
162083458.71275,,,,,0.2401220555,0.0570196105,0.2124930907,,,,,,,,,,,,,,,,,,,,
162083.451890458,,,,,,,,,,,-80.0509796143,-13.4539489746,389.7518920898,,,,,,,,,,,,,,
162083521.811417,0.0138397217,-0.1967315674,-0.9893341064,,,,,,,,,,,,,,,,,,,,,,,,
162083559.758333,,,,,-1.3572070789,0.2744059935,0.1714511152,,,,,,,,,,,,,,,,,,,,
162083.552954,,,,,,,,,,,-80.0509796143,-13.4539489746,389.7518920898,,,,,,,,,,,,,,
162083627.077542,0.0875396729,-0.1644897461,-0.9747467041,,,,,,,,,,,,,,,,,,,,,,,,
162083660.795125,,,,,0.2733846712,0.5944146258,0.6782075274,,,,,,,,,,,,,,,,,,,,
162083.653991,,,,,,,,,,,-79.2101135254,-12.9494323730,389.9154052734,,,,,,,,,,,,,,
162083732.337875,0.2897186279,-0.7731933594,-1.4449615479,,,,,,,,,,,,,,,,,,,,,,,,
1451923558999.99,,,,,,,,,,,,,,52.3943543388065,13.1323672458652,225.3515625,0.0,33.1439819335938,5.0,6.0,,,,,,,
162083761.840167,,,,,2.4462367656,0.1133041886,2.1350818123,,,,,,,,,,,,,,,,,,,,
162083.755034458,,,,,,,,,,,-78.0328979492,-14.1266479492,390.0788574219,,,,,,,,,,,,,,
162083837.556208,-0.0775299072,-0.4030914307,-1.0291442871,,,,,,,,,,,,,,,,,,,,,,,,
162083862.877125,,,,,4.5800043079,-1.0464646493,1.5153016423,,,,,,,,,,,,,,,,,,,,
162083.856076,,,,,,,,,,,-78.5374145508,-15.3038787842,385.0108032227,,,,,,,,,,,,,,
162083942.811375,-0.2821197510,-0.6737518311,-0.5490570068,,,,,,,,,,,,,,,,,,,,,,,,
162083963.918833,,,,,2.2508755238,0.5732086730,1.0444204068,,,,,,,,,,,,,,,,,,,,
162083.957114125,,,,,,,,,,,-79.3782958984,-23.2080688477,381.5775756836,,,,,,,,,,,,,,
162084048.003667,-0.6546783447,-0.7158813477,-0.4321899414,,,,,,,,,,,,,,,,,,,,,,,,
162084064.954375,,,,,-0.4112882124,-0.2540186964,0.7422315179,,,,,,,,,,,,,,,,,,,,
162084.058155792,,,,,,,,,,,-79.8828125000,-26.0670318604,380.1062011719,,,,,,,,,,,,,,
162084153.226167,-0.2460937500,-0.3696289062,-0.7187194824,,,,,,,,,,,,,,,,,,,,,,,,
162084165.991125,,,,,-2.6051007162,-1.3919568038,-2.1311773518,,,,,,,,,,,,,,,,,,,,
162084.159197,,,,,,,,,,,-78.2010650635,-29.0941619873,375.2015991211,,,,,,,,,,,,,,
162084257.505417,0.2380218506,-0.6208343506,-0.1286163330,,,,,,,,,,,,,,,,,,,,,,,,
162084267.035292,,,,,0.9788006502,-1.9374411709,-1.3175539419,,,,,,,,,,,,,,,,,,,,
162084.260240667,,,,,,,,,,,-77.6965484619,-31.6167755127,372.0953369141,,,,,,,,,,,,,,
162084362.237708,-0.0094299316,-0.7410736084,-0.2100372314,,,,,,,,,,,,,,,,,,,,,,,,
162084368.067958,,,,,0.3561463968,-0.7919069291,-0.2424536530,,,,,,,,,,,,,,,,,,,,
162084.360624542,,,,,,,,,,,-78.0328979492,-33.6348724365,370.4605102539,,,,,,,,,,,,,,
162084466.659417,0.0755615234,-0.9896850586,-0.2366638184,,,,,,,,,,,,,,,,,,,,,,,,
162084469.101292,,,,,-0.3780082862,0.1783516319,-0.1075416406,,,,,,,,,,,,,,,,,,,,
162084.461656333,,,,,,,,,,,-79.7146453857,-32.9621734619,369.8065490723,,,,,,,,,,,,,,
162084570.233458,,,,,-1.0703002073,-0.1455758420,0.1293310920,,,,,,,,,,,,,,,,,,,,
162084571.342125,0.0519256592,-0.8935241699,-0.2904205322,,,,,,,,,,,,,,,,,,,,,,,,
162084.562695167,,,,,,,,,,,-79.2101135254,-31.4486083984,367.3542480469,,,,,,,,,,,,,,
1451923559999.99,,,,,,,,,,,,,,52.3943625949811,13.1323250010732,225.3515625,0.25,33.3491821289062,5.0,6.0,,,,,,,
162084671.385,,,,,-0.4064503140,-0.5831156323,0.3142042728,,,,,,,,,,,,,,,,,,,,
162084.663744917,,,,,,,,,,,-79.0419464111,-29.9350433350,365.8828735352,,,,,,,,,,,,,,
162084676.19825,-0.2624969482,-0.7729187012,-0.3828735352,,,,,,,,,,,,,,,,,,,,,,,,
162084772.423583,,,,,-3.0275776673,1.7803077424,0.4600232614,,,,,,,,,,,,,,,,,,,,
162084.764788417,,,,,,,,,,,-75.1739349365,-26.4033813477,362.7766113281,,,,,,,,,,,,,,
162084779.73975,0.0495758057,-0.7928619385,-0.7658843994,,,,,,,,,,,,,,,,,,,,,,,,
162084873.484042,,,,,-1.0519901759,0.7100368298,0.3317257422,,,,,,,,,,,,,,,,,,,,
162084.865829583,,,,,,,,,,,-73.1558380127,-24.0489349365,363.7575378418,,,,,,,,,,,,,,
162084884.620958,-0.2568817139,-0.5687866211,-0.7288208008,,,,,,,,,,,,,,,,,,,,,,,,
162084973.744417,,,,,-0.7810196602,0.8688861330,0.4767127593,,,,,,,,,,,,,,,,,,,,
162084.966871583,,,,,,,,,,,-68.1106109619,-18.6673583984,364.4114990234,,,,,,,,,,,,,,
162084989.97075,-0.1694793701,-0.6182708740,-0.9085998535,,,,,,,,,,,,,,,,,,,,,,,,
162085073.97875,,,,,-0.3022440163,0.1933313804,-0.2592747111,,,,,,,,,,,,,,,,,,,,
162085.067911958,,,,,,,,,,,-65.0834655762,-16.9856109619,365.7193603516,,,,,,,,,,,,,,
162085094.837708,0.0256500244,-0.4881134033,-0.9475708008,,,,,,,,,,,,,,,,,,,,,,,,
162085175.027,,,,,-0.0381140963,0.2488052922,0.1551746736,,,,,,,,,,,,,,,,,,,,
162085.168954875,,,,,,,,,,,-65.0834655762,-17.3219604492,367.0272827148,,,,,,,,,,,,,,
162085200.247,-0.1393432617,-0.4908752441,-0.9020385742,,,,,,,,,,,,,,,,,,,,,,,,
162085276.064792,,,,,-0.1250625774,0.2393119219,0.1994268235,,,,,,,,,,,,,,,,,,,,
162085.269986625,,,,,,,,,,,-63.2335510254,-17.1537933350,365.8828735352,,,,,,,,,,,,,,
162085305.145375,-0.1949615479,-0.4718322754,-0.8285980225,,,,,,,,,,,,,,,,,,,,,,,,
162085377.101458,,,,,-0.3553394590,0.3235407829,-0.3498967567,,,,,,,,,,,,,,,,,,,,
162085.371024375,,,,,,,,,,,-61.7199859619,-13.9584808350,368.6621398926,,,,,,,,,,,,,,
162085410.392917,0.0198059082,-0.4184417725,-0.9079284668,,,,,,,,,,,,,,,,,,,,,,,,
162085478.1385,,,,,-0.1831421261,0.3104609336,-0.0862038613,,,,,,,,,,,,,,,,,,,,
162085.472063167,,,,,,,,,,,-60.3745880127,-12.6130828857,369.9700317383,,,,,,,,,,,,,,
162085514.683083,-0.0393218994,-0.4213867188,-0.8689727783,,,,,,,,,,,,,,,,,,,,,,,,
162085579.175583,,,,,-0.2540304143,0.2599277182,-0.1862585572,,,,,,,,,,,,,,,,,,,,
162085.573102292,,,,,,,,,,,-57.8519744873,-11.4358673096,370.1335144043,,,,,,,,,,,,,,
162085619.990375,0.0301971436,-0.3812561035,-0.8567352295,,,,,,,,,,,,,,,,,,,,,,,,
1451923560999.99,,,,,,,,,,,,,,52.3943625949811,13.1323250010732,225.3515625,0.0,34.0955810546875,5.0,4.0,,,,,,,
162085680.214333,,,,,-0.4045320391,-0.1054531897,-0.1831551755,,,,,,,,,,,,,,,,,,,,
162085.67414075,,,,,,,,,,,-57.0111083984,-11.9403839111,370.9509582520,,,,,,,,,,,,,,
162085724.323542,0.0447692871,-0.3292694092,-0.9568176270,,,,,,,,,,,,,,,,,,,,,,,,
162085781.255833,,,,,-0.2721750634,-0.7713667666,-0.0495361279,,,,,,,,,,,,,,,,,,,,
162085.775182625,,,,,,,,,,,-58.0201568604,-11.6040344238,371.2779235840,,,,,,,,,,,,,,
162085829.58675,-0.0939483643,-0.2841491699,-1.0784912109,,,,,,,,,,,,,,,,,,,,,,,,
162085882.284042,,,,,0.3700712672,-0.0484487592,0.0639201272,,,,,,,,,,,,,,,,,,,,
162085.876222292,,,,,,,,,,,-59.5337219238,-11.0995178223,370.4605102539,,,,,,,,,,,,,,
162085934.766917,-0.1117095947,-0.3539581299,-0.8169555664,,,,,,,,,,,,,,,,,,,,,,,,
162085983.321208,,,,,0.1172967997,-0.1163031743,-0.5586153492,,,,,,,,,,,,,,,,,,,,
162085.976912,,,,,,,,,,,-61.0472869873,-10.9313354492,370.6239624023,,,,,,,,,,,,,,
162086039.991667,-0.0128173828,-0.3789825439,-1.0077209473,,,,,,,,,,,,,,,,,,,,,,,,
162086084.357625,,,,,0.4155031975,-0.1768333637,0.0541292818,,,,,,,,,,,,,,,,,,,,
162086.077954583,,,,,,,,,,,-61.5518035889,-11.4358673096,369.1525878906,,,,,,,,,,,,,,
162086145.193542,-0.1502380371,-0.4487609863,-0.8966827393,,,,,,,,,,,,,,,,,,,,,,,,
162086185.39425,,,,,0.1375807661,-0.0086917588,0.0180719448,,,,,,,,,,,,,,,,,,,,
162086.178997375,,,,,,,,,,,-62.7290344238,-10.5949859619,369.9700317383,,,,,,,,,,,,,,
162086250.397042,-0.1049041748,-0.4181671143,-0.8897857666,,,,,,,,,,,,,,,,,,,,,,,,
162086286.430875,,,,,-0.1665101524,0.0962309291,-0.2010484223,,,,,,,,,,,,,,,,,,,,
162086.280035167,,,,,,,,,,,-60.8791198730,-11.4358673096,369.8065490723,,,,,,,,,,,,,,
162086355.648542,-0.0644683838,-0.4063873291,-0.9885406494,,,,,,,,,,,,,,,,,,,,,,,,
162086387.476125,,,,,0.1536920918,0.1156184756,0.0215785290,,,,,,,,,,,,,,,,,,,,
162086.381075458,,,,,,,,,,,-61.7199859619,-11.6040344238,367.6812133789,,,,,,,,,,,,,,
162086460.924792,-0.0687561035,-0.4123687744,-0.8552551270,,,,,,,,,,,,,,,,,,,,,,,,
162086488.54725,,,,,-0.0386483264,0.1116655456,0.0203782423,,,,,,,,,,,,,,,,,,,,
162086.482046458,,,,,,,,,,,-62.3926849365,-10.9313354492,368.0081787109,,,,,,,,,,,,,,
162086566.145583,-0.0700836182,-0.4143524170,-0.9088745117,,,,,,,,,,,,,,,,,,,,,,,,
162086589.584083,,,,,0.0929152936,0.2012417678,-0.0524711977,,,,,,,,,,,,,,,,,,,,
162086.583084,,,,,,,,,,,-64.4107818604,-11.6040344238,366.3733520508,,,,,,,,,,,,,,
162086671.3925,-0.0788574219,-0.4506683350,-0.8656616211,,,,,,,,,,,,,,,,,,,,,,,,
162086690.634917,,,,,-0.0514080638,-0.0216056933,-0.1119782007,,,,,,,,,,,,,,,,,,,,
162086.684124917,,,,,,,,,,,-63.0653839111,-12.9494323730,368.6621398926,,,,,,,,,,,,,,
1451923561999.99,,,,,,,,,,,,,,52.3943625949811,13.1323250010732,225.3515625,0.0,33.9246826171875,5.0,4.0,,,,,,,
162086776.304083,-0.0884857178,-0.4244537354,-0.9946136475,,,,,,,,,,,,,,,,,,,,,,,,
162086791.672375,,,,,0.3519082422,-0.1075488311,-0.3094731671,,,,,,,,,,,,,,,,,,,,
162086.785163583,,,,,,,,,,,-65.0834655762,-12.6130828857,368.3351745605,,,,,,,,,,,,,,
162086880.806125,-0.1242218018,-0.4613647461,-0.9137420654,,,,,,,,,,,,,,,,,,,,,,,,
162086892.819542,,,,,0.1150903707,0.0689391206,-0.0928521767,,,,,,,,,,,,,,,,,,,,
162086.886202333,,,,,,,,,,,-65.9243469238,-12.7812500000,365.8828735352,,,,,,,,,,,,,,
162086986.053417,-0.1044006348,-0.5459136963,-0.9548339844,,,,,,,,,,,,,,,,,,,,,,,,
162086993.856417,,,,,0.3284133025,-0.0506605145,-0.2431183780,,,,,,,,,,,,,,,,,,,,
162086.987262083,,,,,,,,,,,-65.9243469238,-13.4539489746,366.5368041992,,,,,,,,,,,,,,
162087091.319167,-0.0359344482,-0.4284973145,-0.9489288330,,,,,,,,,,,,,,,,,,,,,,,,
162087094.89875,,,,,0.0995891753,0.0962857903,-0.6033197039,,,,,,,,,,,,,,,,,,,,
162087.08829925,,,,,,,,,,,-65.0834655762,-10.9313354492,366.0463562012,,,,,,,,,,,,,,
162087195.942083,,,,,0.4320155952,0.2707470764,-0.3877842179,,,,,,,,,,,,,,,,,,,,
162087196.018083,0.1147918701,-0.5204620361,-0.7961120605,,,,,,,,,,,,,,,,,,,,,,,,
162087.189342375,,,,,,,,,,,-64.9152984619,-11.7722167969,365.2289428711,,,,,,,,,,,,,,
162087296.979542,,,,,0.3922018695,0.3923512729,0.0687218067,,,,,,,,,,,,,,,,,,,,
162087.290396667,,,,,,,,,,,-65.9243469238,-12.1085662842,365.5559082031,,,,,,,,,,,,,,
162087301.244375,0.0380706787,-0.5500640869,-0.7898101807,,,,,,,,,,,,,,,,,,,,,,,,
162087398.016792,,,,,0.7345765277,0.5091543225,0.4874532880,,,,,,,,,,,,,,,,,,,,
162087.391467042,,,,,,,,,,,-63.7380828857,-14.2948303223,365.7193603516,,,,,,,,,,,,,,
162087406.513583,0.1023101807,-0.5738525391,-0.7275695801,,,,,,,,,,,,,,,,,,,,,,,,
162087499.059792,,,,,-0.3335231096,-0.5293730415,-0.0738699634,,,,,,,,,,,,,,,,,,,,
162087.492600417,,,,,,,,,,,-64.2425994873,-15.1356964111,364.9019470215,,,,,,,,,,,,,,
162087511.721208,0.0785522461,-0.5852966309,-1.1013031006,,,,,,,,,,,,,,,,,,,,,,,,
162087600.089625,,,,,-0.1296501387,-0.5301690603,0.1352699412,,,,,,,,,,,,,,,,,,,,
162087.593666208,,,,,,,,,,,-66.7652130127,-17.6583099365,363.7575378418,,,,,,,,,,,,,,
162087617.087583,-0.0606689453,-0.6446075439,-0.9109954834,,,,,,,,,,,,,,,,,,,,,,,,
162087700.846083,,,,,0.0050903661,-0.3452143868,0.0352623834,,,,,,,,,,,,,,,,,,,,
162087.694712417,,,,,,,,,,,-66.4288635254,-17.6583099365,364.7384643555,,,,,,,,,,,,,,
162087721.817125,-0.1091918945,-0.6699371338,-0.7302398682,,,,,,,,,,,,,,,,,,,,,,,,
1451923562999.99,,,,,,,,,,,,,,52.3943625949811,13.1323250010732,225.3515625,0.0,33.83251953125,5.0,4.0,,,,,,,
162087801.87275,,,,,0.1764964739,-0.5042604977,-0.2471392186,,,,,,,,,,,,,,,,,,,,
162087.79574575,,,,,,,,,,,-68.1106109619,-17.6583099365,364.0845336914,,,,,,,,,,,,,,
162087826.449125,0.0337219238,-0.6360473633,-0.7807006836,,,,,,,,,,,,,,,,,,,,,,,,
162087902.899292,,,,,-0.2759200005,0.0338692838,-0.0325875044,,,,,,,,,,,,,,,,,,,,
162087.8964595,,,,,,,,,,,-70.1287078857,-18.3310089111,363.1035766602,,,,,,,,,,,,,,
162087930.859042,-0.1009521484,-0.6928100586,-0.7153778076,,,,,,,,,,,,,,,,,,,,,,,,
162088004.0665,,,,,-0.3012389393,-0.1803652480,0.1317468454,,,,,,,,,,,,,,,,,,,,
162087.997499875,,,,,,,,,,,-69.6241760254,-18.4991760254,363.9210205078,,,,,,,,,,,,,,
162088035.656625,-0.1385803223,-0.6192169189,-0.7277526855,,,,,,,,,,,,,,,,,,,,,,,,
162088105.12325,,,,,0.3260449533,0.0329904406,0.0311326195,,,,,,,,,,,,,,,,,,,,
162088.098564792,,,,,,,,,,,-68.2787780762,-17.8264923096,363.2670898438,,,,,,,,,,,,,,
162088140.814333,-0.0808715820,-0.6633911133,-0.7329864502,,,,,,,,,,,,,,,,,,,,,,,,
162088206.291667,,,,,0.0129634692,0.2621360114,0.0024082966,,,,,,,,,,,,,,,,,,,,
162088.199619333,,,,,,,,,,,-68.1106109619,-17.9946594238,364.0845336914,,,,,,,,,,,,,,
162088246.049708,-0.0624237061,-0.6978607178,-0.7276153564,,,,,,,,,,,,,,,,,,,,,,,,
162088307.39875,,,,,-0.0766380530,0.0704808246,-0.0065939869,,,,,,,,,,,,,,,,,,,,
162088.300663,,,,,,,,,,,-68.7833099365,-16.3129119873,362.7766113281,,,,,,,,,,,,,,
162088350.617833,-0.0939025879,-0.6300048828,-0.7288513184,,,,,,,,,,,,,,,,,,,,,,,,
162088408.431833,,,,,-0.0103586314,0.2001834276,0.0545231633,,,,,,,,,,,,,,,,,,,,
162088.401713333,,,,,,,,,,,-69.1196594238,-16.9856109619,363.7575378418,,,,,,,,,,,,,,
162088454.71975,-0.0374908447,-0.6508941650,-0.7653045654,,,,,,,,,,,,,,,,,,,,,,,,
162088509.465583,,,,,-0.1460895658,0.1725672460,-0.0191257577,,,,,,,,,,,,,,,,,,,,
162088.502549458,,,,,,,,,,,-68.9514770508,-17.8264923096,364.9019470215,,,,,,,,,,,,,,
162088557.923917,-0.0596008301,-0.6530456543,-0.8002471924,,,,,,,,,,,,,,,,,,,,,,,,
162088610.502708,,,,,-0.0577897967,-0.0076070533,-0.0398379604,,,,,,,,,,,,,,,,,,,,
162088.603589833,,,,,,,,,,,-69.6241760254,-17.1537933350,364.5749816895,,,,,,,,,,,,,,
162088662.959833,-0.0936431885,-0.6313018799,-0.7748565674,,,,,,,,,,,,,,,,,,,,,,,,
162088711.542125,,,,,-0.0839947692,-0.0145725512,-0.1637804123,,,,,,,,,,,,,,,,,,,,
162088.704634417,,,,,,,,,,,-68.2787780762,-16.8174438477,364.2479858398,,,,,,,,,,,,,,
1451923563999.99,,,,,,,,,,,,,,52.3943625949811,13.1323250010732,225.3515625,0.0,33.382568359375,5.0,4.0,,,,,,,
162088766.971292,-0.0606689453,-0.6279144287,-0.8039398193,,,,,,,,,,,,,,,,,,,,,,,,
162088812.582292,,,,,-0.1765257686,0.2107130339,-0.2032974618,,,,,,,,,,,,,,,,,,,,
162088.805673333,,,,,,,,,,,-68.2787780762,-16.8174438477,364.9019470215,,,,,,,,,,,,,,
162088872.186,-0.0206604004,-0.6049499512,-0.8189239502,,,,,,,,,,,,,,,,,,,,,,,,
162088913.625583,,,,,-0.0211268569,-0.0134164729,-0.0258800668,,,,,,,,,,,,,,,,,,,,
162088.9067575,,,,,,,,,,,-70.1287078857,-17.3219604492,364.0845336914,,,,,,,,,,,,,,
162088976.818833,-0.0698394775,-0.6573181152,-0.8520050049,,,,,,,,,,,,,,,,,,,,,,,,
162089014.662083,,,,,0.1907292057,-0.2032769555,-0.2529931130,,,,,,,,,,,,,,,,,,,,
162089.007794917,,,,,,,,,,,-68.6151275635,-16.8174438477,365.5559082031,,,,,,,,,,,,,,
162089082.074167,-0.0643768311,-0.6300506592,-0.8023071289,,,,,,,,,,,,,,,,,,,,,,,,
162089115.697375,,,,,-0.3531460795,0.3981867914,-0.2021392531,,,,,,,,,,,,,,,,,,,,
162089.108831542,,,,,,,,,,,-68.9514770508,-15.1356964111,364.2479858398,,,,,,,,,,,,,,
162089187.4155,0.0078277588,-0.6548156738,-0.9241333008,,,,,,,,,,,,,,,,,,,,,,,,
162089216.723083,,,,,-1.0261734923,0.7794481289,-0.6540896743,,,,,,,,,,,,,,,,,,,,
162089.209937917,,,,,,,,,,,-68.6151275635,-12.4449005127,364.9019470215,,,,,,,,,,,,,,
162089292.755583,0.0743103027,-0.5193481445,-0.7027587891,,,,,,,,,,,,,,,,,,,,,,,,
162089317.767708,,,,,0.8691673629,0.1244021135,0.3753595062,,,,,,,,,,,,,,,,,,,,
162089.310961417,,,,,,,,,,,-68.1106109619,-13.6221313477,362.4496459961,,,,,,,,,,,,,,
162089398.116333,0.0985412598,-0.5487670898,-0.8458404541,,,,,,,,,,,,,,,,,,,,,,,,
162089418.814583,,,,,0.0198197775,0.0679425657,-0.0532728092,,,,,,,,,,,,,,,,,,,,
162089.411990208,,,,,,,,,,,-67.1015625000,-12.6130828857,363.4305725098,,,,,,,,,,,,,,
162089503.314667,-0.0379028320,-0.5200347900,-0.6852874756,,,,,,,,,,,,,,,,,,,,,,,,
162089519.857292,,,,,-0.7106142031,0.9487596605,-0.4987309763,,,,,,,,,,,,,,,,,,,,
162089.512991458,,,,,,,,,,,-65.4198150635,-13.9584808350,363.7575378418,,,,,,,,,,,,,,
1451923564999.99,,,,,,,,,,,,,,52.3943625949811,13.1323250010732,225.3515625,0.0,32.6536865234375,5.0,4.0,,,,,,,
162089607.65,-0.0339660645,-0.6275787354,-0.6873931885,,,,,,,,,,,,,,,,,,,,,,,,
162089620.909792,,,,,0.6731874688,-0.3371159803,0.0383101049,,,,,,,,,,,,,,,,,,,,
162089.61403275,,,,,,,,,,,-67.2697448730,-14.4629974365,363.5940551758,,,,,,,,,,,,,,
162089712.2625,-0.0965576172,-0.5787506104,-0.6691131592,,,,,,,,,,,,,,,,,,,,,,,,
162089721.955708,,,,,-0.3647835608,-0.4179162877,-0.0535359295,,,,,,,,,,,,,,,,,,,,
162089.715068042,,,,,,,,,,,-71.6422729492,-12.7812500000,362.2861633301,,,,,,,,,,,,,,
162089816.185167,-0.0461273193,-0.5334167480,-0.7150268555,,,,,,,,,,,,,,,,,,,,,,,,
162089822.984875,,,,,0.1635660278,0.3334586611,-0.0575642270,,,,,,,,,,,,,,,,,,,,
162089.816114167,,,,,,,,,,,-69.2878265381,-10.7631683350,363.2670898438,,,,,,,,,,,,,,
162089921.375208,-0.0167846680,-0.5490417480,-0.7275848389,,,,,,,,,,,,,,,,,,,,,,,,
162089924.010208,,,,,0.0212208665,0.6469132541,0.2613724831,,,,,,,,,,,,,,,,,,,,
162089.917158583,,,,,,,,,,,-67.6060943604,-13.1175994873,365.2289428711,,,,,,,,,,,,,,
162090025.047208,,,,,-0.0856840123,0.5264946970,0.5007041123,,,,,,,,,,,,,,,,,,,,
162090025.093833,0.0732879639,-0.4912872314,-0.9144897461,,,,,,,,,,,,,,,,,,,,,,,,
162090.018200292,,,,,,,,,,,-65.5879974365,-9.4177703857,366.8637695312,,,,,,,,,,,,,,
162090126.085458,,,,,0.2194482022,0.2944071322,0.4443793205,,,,,,,,,,,,,,,,,,,,
162090.119239375,,,,,,,,,,,-63.0653839111,-11.6040344238,367.6812133789,,,,,,,,,,,,,,
162090130.241083,0.1187896729,-0.4904022217,-0.9890594482,,,,,,,,,,,,,,,,,,,,,,,,
162090227.118667,,,,,0.0076637787,-0.5070821168,-0.1184744495,,,,,,,,,,,,,,,,,,,,
162090.220313292,,,,,,,,,,,-64.2425994873,-11.0995178223,367.1907653809,,,,,,,,,,,,,,
162090234.658875,0.0334014893,-0.5458984375,-0.9105529785,,,,,,,,,,,,,,,,,,,,,,,,
162090327.455208,,,,,0.2873404342,-0.4429974063,-0.1685959402,,,,,,,,,,,,,,,,,,,,
162090.32137475,,,,,,,,,,,-67.2697448730,-12.7812500000,366.5368041992,,,,,,,,,,,,,,
162090339.990167,-0.0768737793,-0.5524597168,-0.8309631348,,,,,,,,,,,,,,,,,,,,,,,,
162090428.531292,,,,,0.2056991005,0.1560441956,-0.1418170565,,,,,,,,,,,,,,,,,,,,
162090.422431333,,,,,,,,,,,-67.4379119873,-12.2767333984,364.4114990234,,,,,,,,,,,,,,
162090445.287458,-0.0570526123,-0.5665435791,-0.8741302490,,,,,,,,,,,,,,,,,,,,,,,,
162090529.485625,,,,,0.2046849687,0.1700979630,-0.1181668544,,,,,,,,,,,,,,,,,,,,
162090.5236295,,,,,,,,,,,-66.9333953857,-12.4449005127,364.9019470215,,,,,,,,,,,,,,
162090550.4915,-0.0629882812,-0.6189422607,-0.8468627930,,,,,,,,,,,,,,,,,,,,,,,,
1451923565999.99,,,,,,,,,,,,,,52.3943625949811,13.1323250010732,225.3515625,0.0,32.0272216796875,5.0,4.0,,,,,,,
162090629.998958,,,,,0.0792476846,0.2781416095,-0.0511702435,,,,,,,,,,,,,,,,,,,,
162090.624653917,,,,,,,,,,,-65.7561645508,-14.2948303223,364.4114990234,,,,,,,,,,,,,,
162090654.234208,-0.0314636230,-0.6166381836,-0.7684631348,,,,,,,,,,,,,,,,,,,,,,,,
162090730.758458,,,,,-0.1114695369,0.1867371272,0.0161273046,,,,,,,,,,,,,,,,,,,,
162090.725683625,,,,,,,,,,,-66.0925140381,-14.6311798096,365.0654296875,,,,,,,,,,,,,,
162090759.546292,-0.0245819092,-0.6097106934,-0.7662811279,,,,,,,,,,,,,,,,,,,,,,,,
162090831.801583,,,,,-0.3304900355,0.1454424177,-0.1598477223,,,,,,,,,,,,,,,,,,,,
162090.826717625,,,,,,,,,,,-66.0925140381,-12.2767333984,364.7384643555,,,,,,,,,,,,,,
162090864.853917,-0.0166320801,-0.6142425537,-0.8331604004,,,,,,,,,,,,,,,,,,,,,,,,
162090932.837292,,,,,0.2801171424,0.2435213143,-0.1705919794,,,,,,,,,,,,,,,,,,,,
162090.927812083,,,,,,,,,,,-65.9243469238,-13.1175994873,362.6131591797,,,,,,,,,,,,,,
162090969.939083,-0.0008850098,-0.6072082520,-0.7659606934,,,,,,,,,,,,,,,,,,,,,,,,
162091033.857792,,,,,0.2661446014,-0.1147766503,-0.2522263889,,,,,,,,,,,,,,,,,,,,
162091.028951292,,,,,,,,,,,-65.7561645508,-13.2857818604,363.7575378418,,,,,,,,,,,,,,
162091074.827875,-0.0166320801,-0.6325836182,-0.7433471680,,,,,,,,,,,,,,,,,,,,,,,,
162091134.926375,,,,,-0.0109951269,0.1123068347,-0.0377010400,,,,,,,,,,,,,,,,,,,,
162091.129709375,,,,,,,,,,,-66.9333953857,-14.1266479492,363.5940551758,,,,,,,,,,,,,,
162091180.290708,-0.0088348389,-0.6601104736,-0.7154541016,,,,,,,,,,,,,,,,,,,,,,,,
162091235.975958,,,,,0.2409665439,0.5057950111,0.1453318965,,,,,,,,,,,,,,,,,,,,
162091.230736167,,,,,,,,,,,-65.5879974365,-14.7993469238,363.5940551758,,,,,,,,,,,,,,
162091285.54975,-0.0116577148,-0.6490783691,-0.7203826904,,,,,,,,,,,,,,,,,,,,,,,,
162091337.043417,,,,,-0.1666827253,-0.0529287288,-0.2803038300,,,,,,,,,,,,,,,,,,,,
162091.33187775,,,,,,,,,,,-66.4288635254,-12.6130828857,365.0654296875,,,,,,,,,,,,,,
162091390.08975,0.0680389404,-0.6750946045,-0.8799133301,,,,,,,,,,,,,,,,,,,,,,,,
162091438.111583,,,,,0.2391345553,0.2596025462,-0.0805129524,,,,,,,,,,,,,,,,,,,,
162091.432411208,,,,,,,,,,,-64.5789489746,-11.0995178223,367.1907653809,,,,,,,,,,,,,,
162091495.673458,0.0646972656,-0.6524505615,-0.7837524414,,,,,,,,,,,,,,,,,,,,,,,,
162091539.229208,,,,,0.2884584293,0.2576624334,0.0456487116,,,,,,,,,,,,,,,,,,,,
162091.5334555,,,,,,,,,,,-64.4107818604,-11.6040344238,365.7193603516,,,,,,,,,,,,,,
162091600.683958,0.0160522461,-0.6699371338,-0.7536010742,,,,,,,,,,,,,,,,,,,,,,,,
1451923566999.99,,,,,,,,,,,,,,52.3943625949811,13.1323250010732,225.3515625,0.0,31.6702270507812,5.0,4.0,,,,,,,
162091640.256958,,,,,0.1547011635,0.1816140042,-0.0020335898,,,,,,,,,,,,,,,,,,,,
162091.633775542,,,,,,,,,,,-64.0744323730,-11.9403839111,365.3923950195,,,,,,,,,,,,,,
162091705.910208,0.0121765137,-0.7167053223,-0.7436218262,,,,,,,,,,,,,,,,,,,,,,,,
162091741.303625,,,,,0.1759193669,0.2814990567,-0.1013934669,,,,,,,,,,,,,,,,,,,,
162091.734906375,,,,,,,,,,,-64.7471160889,-13.6221313477,367.0272827148,,,,,,,,,,,,,,
162091811.309833,0.0964813232,-0.6483001709,-0.6704864502,,,,,,,,,,,,,,,,,,,,,,,,
162091842.342208,,,,,-0.0580523844,0.0763855853,-0.1343474222,,,,,,,,,,,,,,,,,,,,
162091.835948,,,,,,,,,,,-63.5699005127,-13.7902984619,366.2098388672,,,,,,,,,,,,,,
162091916.634792,0.0874938965,-0.7229919434,-0.7332153320,,,,,,,,,,,,,,,,,,,,,,,,
162091943.469833,,,,,-0.1657522168,-0.0797744578,-0.0652192172,,,,,,,,,,,,,,,,,,,,
162091.93702375,,,,,,,,,,,-63.9062500000,-12.7812500000,366.8637695312,,,,,,,,,,,,,,
162092021.28325,0.0621032715,-0.6735382080,-0.7326202393,,,,,,,,,,,,,,,,,,,,,,,,
162092044.533208,,,,,0.1097486022,-0.0825007358,0.1198481080,,,,,,,,,,,,,,,,,,,,
162092.03813875,,,,,,,,,,,-64.0744323730,-13.9584808350,367.3542480469,,,,,,,,,,,,,,
162092126.573042,0.1531372070,-0.6918182373,-0.6496429443,,,,,,,,,,,,,,,,,,,,,,,,
162092145.560417,,,,,-0.6239807739,-0.0813763492,0.0474711127,,,,,,,,,,,,,,,,,,,,
162092.139237042,,,,,,,,,,,-63.4017333984,-13.2857818604,364.7384643555,,,,,,,,,,,,,,
162092231.291417,0.2073822021,-0.6168212891,-0.7056121826,,,,,,,,,,,,,,,,,,,,,,,,
162092246.609958,,,,,-0.5320372678,-0.6573009139,-0.2228269547,,,,,,,,,,,,,,,,,,,,
162092.24027425,,,,,,,,,,,-63.4017333984,-9.5859375000,366.3733520508,,,,,,,,,,,,,,
162092336.357625,-0.1281585693,-0.5438385010,-0.8652343750,,,,,,,,,,,,,,,,,,,,,,,,
162092347.63625,,,,,0.2404099432,-0.3755821464,0.6188557867,,,,,,,,,,,,,,,,,,,,
162092.3413045,,,,,,,,,,,-64.5789489746,-11.7722167969,367.5177307129,,,,,,,,,,,,,,
162092441.525833,-0.1321105957,-0.6871948242,-0.9073638916,,,,,,,,,,,,,,,,,,,,,,,,
162092448.660042,,,,,-0.1533048682,-0.2685899159,-0.0393822936,,,,,,,,,,,,,,,,,,,,
162092.4416185,,,,,,,,,,,-67.4379119873,-10.9313354492,367.6812133789,,,,,,,,,,,,,,
162092546.875375,0.0199890137,-0.5177459717,-0.8049163818,,,,,,,,,,,,,,,,,,,,,,,,
162092549.7225,,,,,0.1384233903,0.1134999309,0.0677638676,,,,,,,,,,,,,,,,,,,,
162092.541739375,,,,,,,,,,,-66.2606964111,-11.0995178223,367.8447265625,,,,,,,,,,,,,,
1451923567999.99,,,,,,,,,,,,,,52.3943625949811,13.1323250010732,225.3515625,0.0,31.6702270507812,5.0,4.0,,,,,,,
162092649.215917,-0.0849456787,-0.5906219482,-0.8185729980,,,,,,,,,,,,,,,,,,,,,,,,
162092.641763208,,,,,,,,,,,-65.7561645508,-12.6130828857,366.3733520508,,,,,,,,,,,,,,
162092650.45175,,,,,0.0243543419,-0.1092913374,0.0695316740,,,,,,,,,,,,,,,,,,,,
162092750.573083,,,,,-0.9455758514,-0.2341853368,1.0267660456,,,,,,,,,,,,,,,,,,,,
162092.742117792,,,,,,,,,,,-65.9243469238,-13.1175994873,367.5177307129,,,,,,,,,,,,,,
162092752.930833,0.0673065186,-0.4489746094,-0.8566741943,,,,,,,,,,,,,,,,,,,,,,,,
162092851.461,,,,,-0.5541396407,0.3324083104,0.2718011556,,,,,,,,,,,,,,,,,,,,
162092.843139167,,,,,,,,,,,-66.0925140381,-11.2676849365,370.6239624023,,,,,,,,,,,,,,
162092857.441875,-0.1157226562,-0.6431884766,-0.8176879883,,,,,,,,,,,,,,,,,,,,,,,,
162092952.271958,,,,,0.2818742961,0.6462946018,-0.2224154963,,,,,,,,,,,,,,,,,,,,
162092.944172208,,,,,,,,,,,-63.2335510254,-11.4358673096,370.1335144043,,,,,,,,,,,,,,
162092960.518708,-0.0040740967,-0.4855041504,-0.8428039551,,,,,,,,,,,,,,,,,,,,,,,,
162093053.306583,,,,,0.6408969069,0.0853868035,0.0032482576,,,,,,,,,,,,,,,,,,,,
162093.044724667,,,,,,,,,,,-63.2335510254,-11.4358673096,372.0953369141,,,,,,,,,,,,,,
162093064.794708,-0.0194549561,-0.5476379395,-0.7643585205,,,,,,,,,,,,,,,,,,,,,,,,
162093154.359667,,,,,0.1443949964,-0.1106735181,-0.1285707595,,,,,,,,,,,,,,,,,,,,
162093.14576875,,,,,,,,,,,-64.7471160889,-12.6130828857,369.6430664062,,,,,,,,,,,,,,
162093169.370792,-0.1373748779,-0.5341339111,-0.8085021973,,,,,,,,,,,,,,,,,,,,,,,,
162093255.428208,,,,,-0.0925078299,-0.0896920697,-0.1590365234,,,,,,,,,,,,,,,,,,,,
162093.246886417,,,,,,,,,,,-64.7471160889,-12.2767333984,369.3161010742,,,,,,,,,,,,,,
162093272.820208,-0.0635681152,-0.5537567139,-0.8050537109,,,,,,,,,,,,,,,,,,,,,,,,
162093356.364,,,,,0.0089950929,0.0335608897,-0.1997772955,,,,,,,,,,,,,,,,,,,,
162093.347821875,,,,,,,,,,,-64.2425994873,-10.7631683350,369.4795532227,,,,,,,,,,,,,,
162093377.475625,-0.1017150879,-0.5126953125,-0.8488922119,,,,,,,,,,,,,,,,,,,,,,,,
162093.448052583,,,,,,,,,,,-63.4017333984,-10.9313354492,367.6812133789,,,,,,,,,,,,,,
162093456.987958,,,,,-0.0834584086,0.3000666158,-0.2440033464,,,,,,,,,,,,,,,,,,,,
162093481.221875,0.0609436035,-0.5303802490,-0.8933258057,,,,,,,,,,,,,,,,,,,,,,,,
162093557.5545,,,,,-0.0749671857,0.1100881552,0.0796916335,,,,,,,,,,,,,,,,,,,,
1451923568999.99,,,,,,,,,,,,,,52.394337155905,13.1323531642678,225.3515625,0.170000001788139,31.4620361328125,5.0,4.0,,,,,,,
162093.549091708,,,,,,,,,,,-63.9062500000,-10.7631683350,368.8256225586,,,,,,,,,,,,,,
162093584.690792,-0.0745239258,-0.5236053467,-0.8728027344,,,,,,,,,,,,,,,,,,,,,,,,
162093.650113125,,,,,,,,,,,-63.5699005127,-11.7722167969,369.4795532227,,,,,,,,,,,,,,
162093658.593375,,,,,-0.1222084677,0.1587789958,0.0185430580,,,,,,,,,,,,,,,,,,,,
162093689.121667,-0.0326385498,-0.5431060791,-0.8815612793,,,,,,,,,,,,,,,,,,,,,,,,
162093759.691917,,,,,0.0823188419,-0.0058967713,0.0065894595,,,,,,,,,,,,,,,,,,,,
162093.751160583,,,,,,,,,,,-64.2425994873,-12.1085662842,369.1525878906,,,,,,,,,,,,,,
162093794.437333,-0.0036163330,-0.5324859619,-0.8565063477,,,,,,,,,,,,,,,,,,,,,,,,
162093860.76025,,,,,0.0580981908,-0.0003800331,-0.0216264659,,,,,,,,,,,,,,,,,,,,
162093.85219275,,,,,,,,,,,-62.3926849365,-11.9403839111,368.3351745605,,,,,,,,,,,,,,
162093899.267167,-0.0271148682,-0.5320587158,-0.8587188721,,,,,,,,,,,,,,,,,,,,,,,,
162093961.817375,,,,,0.0848528397,0.0775967910,0.0101588943,,,,,,,,,,,,,,,,,,,,
162093.953339125,,,,,,,,,,,-63.7380828857,-10.2586364746,369.3161010742,,,,,,,,,,,,,,
162094003.128708,-0.0701599121,-0.5495147705,-0.8693542480,,,,,,,,,,,,,,,,,,,,,,,,
162094062.847042,,,,,0.0102190817,0.2992029527,-0.1133816866,,,,,,,,,,,,,,,,,,,,
162094.054368625,,,,,,,,,,,-63.0653839111,-12.2767333984,367.6812133789,,,,,,,,,,,,,,
162094107.376125,0.0564422607,-0.5445251465,-0.8649139404,,,,,,,,,,,,,,,,,,,,,,,,
162094163.951292,,,,,0.0928545735,0.1310296562,0.1247784181,,,,,,,,,,,,,,,,,,,,
162094.155416667,,,,,,,,,,,-65.7561645508,-11.9403839111,368.9891357422,,,,,,,,,,,,,,
162094212.640083,-0.0696563721,-0.5529632568,-0.8636779785,,,,,,,,,,,,,,,,,,,,,,,,
162094264.920458,,,,,-0.0380198204,-0.0029174930,-0.1664172081,,,,,,,,,,,,,,,,,,,,
162094.256447792,,,,,,,,,,,-63.2335510254,-11.0995178223,369.8065490723,,,,,,,,,,,,,,
162094317.92375,-0.0278167725,-0.5203704834,-0.9210510254,,,,,,,,,,,,,,,,,,,,,,,,
162094365.960917,,,,,0.0961531648,0.2717058144,-0.0347292185,,,,,,,,,,,,,,,,,,,,
162094.357502167,,,,,,,,,,,-65.0834655762,-11.2676849365,368.3351745605,,,,,,,,,,,,,,
162094422.411333,0.0921478271,-0.4888916016,-0.9352874756,,,,,,,,,,,,,,,,,,,,,,,,
162094466.817125,,,,,0.0563860445,0.2523606123,0.0730539708,,,,,,,,,,,,,,,,,,,,
162094.458543208,,,,,,,,,,,-62.5608520508,-9.4177703857,368.8256225586,,,,,,,,,,,,,,
1451923569999.99,,,,,,,,,,,,,,52.394337155905,13.1323531642678,225.3515625,0.0,31.913330078125,5.0,4.0,,,,,,,
162094527.635208,0.0496063232,-0.4824829102,-0.8720550537,,,,,,,,,,,,,,,,,,,,,,,,
162094567.844458,,,,,0.0108680941,0.1805793661,0.0933877384,,,,,,,,,,,,,,,,,,,,
162094.559572167,,,,,,,,,,,-62.7290344238,-9.2495880127,368.6621398926,,,,,,,,,,,,,,
162094632.806,0.0547943115,-0.5295410156,-0.8919067383,,,,,,,,,,,,,,,,,,,,,,,,
162094668.868458,,,,,0.1173319534,-0.2009645327,-0.0315347568,,,,,,,,,,,,,,,,,,,,
162094.660622667,,,,,,,,,,,-63.5699005127,-9.0814208984,368.1716918945,,,,,,,,,,,,,,
162094738.048958,0.0384826660,-0.5160064697,-0.8435211182,,,,,,,,,,,,,,,,,,,,,,,,
162094769.214375,,,,,0.1528457392,-0.1875624408,-0.0979289607,,,,,,,,,,,,,,,,,,,,
162094.761654125,,,,,,,,,,,-64.2425994873,-11.0995178223,368.4986572266,,,,,,,,,,,,,,
162094843.331833,-0.0086975098,-0.4823760986,-0.8734130859,,,,,,,,,,,,,,,,,,,,,,,,
162094870.279542,,,,,0.0789174526,-0.5045358685,-0.0858121103,,,,,,,,,,,,,,,,,,,,
162094.862697417,,,,,,,,,,,-63.4017333984,-10.2586364746,367.6812133789,,,,,,,,,,,,,,
162094948.492167,0.0397949219,-0.5245971680,-0.8278961182,,,,,,,,,,,,,,,,,,,,,,,,
162094971.398375,,,,,-0.0194107159,0.0610116890,-0.0991321768,,,,,,,,,,,,,,,,,,,,
162094.9638275,,,,,,,,,,,-64.5789489746,-11.0995178223,367.8447265625,,,,,,,,,,,,,,
162095053.8045,0.0021667480,-0.5464019775,-0.9569091797,,,,,,,,,,,,,,,,,,,,,,,,
162095072.429917,,,,,-0.0951608710,0.1829354648,-0.0288849115,,,,,,,,,,,,,,,,,,,,
162095.064853042,,,,,,,,,,,-63.5699005127,-8.7450714111,366.8637695312,,,,,,,,,,,,,,
162095159.1155,0.0868988037,-0.4051055908,-0.8887023926,,,,,,,,,,,,,,,,,,,,,,,,
162095173.489,,,,,-0.1414162507,0.1647713745,-0.1538928941,,,,,,,,,,,,,,,,,,,,
162095.16591725,,,,,,,,,,,-62.8972015381,-8.7450714111,367.1907653809,,,,,,,,,,,,,,
162095263.377542,0.0397338867,-0.4400024414,-0.8377380371,,,,,,,,,,,,,,,,,,,,,,,,
162095274.525625,,,,,-0.0370549571,0.3101815680,0.1102854955,,,,,,,,,,,,,,,,,,,,
162095.266245667,,,,,,,,,,,-63.9062500000,-8.7450714111,366.5368041992,,,,,,,,,,,,,,
162095367.31675,0.0723571777,-0.4115753174,-0.9122619629,,,,,,,,,,,,,,,,,,,,,,,,
162095375.557958,,,,,-0.0374613555,0.3691692545,0.0831324376,,,,,,,,,,,,,,,,,,,,
162095.367267583,,,,,,,,,,,-63.7380828857,-8.2405548096,366.3733520508,,,,,,,,,,,,,,
162095472.071583,0.0934600830,-0.4252471924,-0.8802185059,,,,,,,,,,,,,,,,,,,,,,,,
162095476.578917,,,,,0.1387035548,0.3473995105,0.1506041565,,,,,,,,,,,,,,,,,,,,
162095.46830725,,,,,,,,,,,-62.8972015381,-8.0723724365,366.5368041992,,,,,,,,,,,,,,
1451923570999.99,,,,,,,,,,,,,,52.394337155905,13.1323531642678,225.3515625,0.0,31.9473266601562,5.0,4.0,,,,,,,
162095577.092625,0.1779937744,-0.4049835205,-1.0506744385,,,,,,,,,,,,,,,,,,,,,,,,
162095577.160958,,,,,-0.2397119287,0.2784641183,0.3384201303,,,,,,,,,,,,,,,,,,,,
162095.569347958,,,,,,,,,,,-64.0744323730,-5.5497589111,367.6812133789,,,,,,,,,,,,,,
162095678.1935,,,,,0.0443227237,0.2661659067,0.2279601977,,,,,,,,,,,,,,,,,,,,
162095.669607,,,,,,,,,,,-63.9062500000,-6.3906250000,366.5368041992,,,,,,,,,,,,,,
162095680.590833,0.0230407715,-0.3442077637,-0.8203125000,,,,,,,,,,,,,,,,,,,,,,,,
162095779.316333,,,,,-0.1114679390,0.2853614392,0.3518291463,,,,,,,,,,,,,,,,,,,,
162095.770720167,,,,,,,,,,,-63.7380828857,-6.8951568604,366.3733520508,,,,,,,,,,,,,,
162095785.661167,0.0976562500,-0.3793945312,-1.0448913574,,,,,,,,,,,,,,,,,,,,,,,,
162095880.202792,,,,,-0.2532903218,0.2272043926,0.3030216594,,,,,,,,,,,,,,,,,,,,
162095.87174275,,,,,,,,,,,-65.2516479492,-5.0452423096,366.5368041992,,,,,,,,,,,,,,
162095890.47775,0.0594940186,-0.3839416504,-1.0089569092,,,,,,,,,,,,,,,,,,,,,,,,
162095981.275625,,,,,-0.1243650955,0.3463560840,0.2136552942,,,,,,,,,,,,,,,,,,,,
162095.972765958,,,,,,,,,,,-66.7652130127,-4.8770599365,366.3733520508,,,,,,,,,,,,,,
162095995.430542,0.0820770264,-0.2785644531,-0.9422760010,,,,,,,,,,,,,,,,,,,,,,,,
162096082.449208,,,,,-0.1965647243,0.3283107708,0.2329943711,,,,,,,,,,,,,,,,,,,,
162096.073827208,,,,,,,,,,,-64.9152984619,-2.3544464111,366.5368041992,,,,,,,,,,,,,,
162096100.798792,0.1349487305,-0.3422546387,-1.0598144531,,,,,,,,,,,,,,,,,,,,,,,,
162096183.546042,,,,,0.0000431432,0.3898481678,0.5036660801,,,,,,,,,,,,,,,,,,,,
162096.174939833,,,,,,,,,,,-65.7561645508,-3.5316619873,366.3733520508,,,,,,,,,,,,,,
162096204.67175,0.0509643555,-0.2992858887,-0.9251403809,,,,,,,,,,,,,,,,,,,,,,,,
162096284.205875,,,,,-0.1652845657,0.3479734217,0.6571110305,,,,,,,,,,,,,,,,,,,,
162096.275969167,,,,,,,,,,,-70.2968750000,-2.6907958984,367.5177307129,,,,,,,,,,,,,,
162096309.161667,-0.0252227783,-0.3652496338,-1.0394897461,,,,,,,,,,,,,,,,,,,,,,,,
162096384.801208,,,,,-0.1577025461,0.4737204315,0.3817452338,,,,,,,,,,,,,,,,,,,,
162096.376155875,,,,,,,,,,,-69.6241760254,-3.0271453857,365.2289428711,,,,,,,,,,,,,,
162096414.535583,0.0609588623,-0.2553558350,-0.9182739258,,,,,,,,,,,,,,,,,,,,,,,,
162096485.258792,,,,,-0.1358656904,0.3876795557,0.5363992594,,,,,,,,,,,,,,,,,,,,
162096.477186833,,,,,,,,,,,-68.7833099365,-0.5045318604,365.3923950195,,,,,,,,,,,,,,
162096518.383583,0.0148162842,-0.2411499023,-0.9776611328,,,,,,,,,,,,,,,,,,,,,,,,
1451923571999.99,,,,,,,,,,,,,,52.3943420174088,13.1323566846672,225.3515625,0.560000002384186,33.8201293945312,5.0,6.0,,,,,,,
162096585.442083,,,,,-0.3183284440,0.5244216924,0.6025726872,,,,,,,,,,,,,,,,,,,,
162096.578231625,,,,,,,,,,,-71.6422729492,0.3363342285,365.5559082031,,,,,,,,,,,,,,
162096622.986583,0.0207519531,-0.2705993652,-1.2330169678,,,,,,,,,,,,,,,,,,,,,,,,
162096685.812,,,,,0.1114753959,0.7205387393,0.8884414586,,,,,,,,,,,,,,,,,,,,
162096.679257208,,,,,,,,,,,-70.9695739746,3.0271301270,363.5940551758,,,,,,,,,,,,,,
162096727.443708,-0.0766448975,-0.2629852295,-0.8753051758,,,,,,,,,,,,,,,,,,,,,,,,
162096786.849542,,,,,-0.3199364607,0.5080472464,0.5883918870,,,,,,,,,,,,,,,,,,,,
162096.780296833,,,,,,,,,,,-72.1467895508,4.5406951904,363.1035766602,,,,,,,,,,,,,,
162096832.350417,0.0449523926,-0.2058105469,-1.2001800537,,,,,,,,,,,,,,,,,,,,,,,,
162096887.874375,,,,,-0.0352930097,0.4861739054,1.0605935178,,,,,,,,,,,,,,,,,,,,
162096.881324417,,,,,,,,,,,-75.3421020508,3.6998291016,364.2479858398,,,,,,,,,,,,,,
162096937.205542,-0.2234954834,-0.2478637695,-1.1662597656,,,,,,,,,,,,,,,,,,,,,,,,
162096989.000875,,,,,0.5639342145,0.6465065894,1.1574987593,,,,,,,,,,,,,,,,,,,,
162096.981860792,,,,,,,,,,,-76.5193328857,-0.1681823730,361.4687500000,,,,,,,,,,,,,,
162097040.891042,-0.5702514648,-0.3118133545,-1.3582611084,,,,,,,,,,,,,,,,,,,,,,,,
162097090.133125,,,,,0.1994867446,-0.0723413089,0.4514188543,,,,,,,,,,,,,,,,,,,,
162097.082996167,,,,,,,,,,,-77.8647155762,-0.5045318604,360.8147888184,,,,,,,,,,,,,,
162097146.113667,-0.1404266357,-0.3412933350,-0.8698730469,,,,,,,,,,,,,,,,,,,,,,,,
162097190.687708,,,,,-0.3388134792,0.3082790057,1.1805369670,,,,,,,,,,,,,,,,,,,,
162097.184049,,,,,,,,,,,-78.8737640381,-2.5226287842,357.5450439453,,,,,,,,,,,,,,
162097250.290625,-0.1987304688,-0.1508178711,-1.0201263428,,,,,,,,,,,,,,,,,,,,,,,,
162097291.719042,,,,,0.2370809918,0.1670537036,0.3780269283,,,,,,,,,,,,,,,,,,,,
162097.285082333,,,,,,,,,,,-80.2191619873,-0.8408813477,356.8911132812,,,,,,,,,,,,,,
162097353.845125,-0.2754058838,-0.3568115234,-1.0378112793,,,,,,,,,,,,,,,,,,,,,,,,
162097392.73875,,,,,0.4344052496,0.1418857660,0.2739958666,,,,,,,,,,,,,,,,,,,,
162097.386128792,,,,,,,,,,,-79.3782958984,-2.6907958984,354.4388122559,,,,,,,,,,,,,,
162097457.0925,-0.0320129395,-0.4709014893,-0.8269348145,,,,,,,,,,,,,,,,,,,,,,,,
162097493.773292,,,,,0.5962812354,-0.0289118094,0.3249373446,,,,,,,,,,,,,,,,,,,,
162097.487161292,,,,,,,,,,,-78.0328979492,-1.3453979492,349.2072448730,,,,,,,,,,,,,,
1451923572999.99,,,,,,,,,,,,,,52.3943468370031,13.1323540024582,225.3515625,0.560000002384186,33.157470703125,5.0,6.0,,,,,,,
162097561.496958,0.3537902832,-0.4804840088,-0.7176818848,,,,,,,,,,,,,,,,,,,,,,,,
162097593.884667,,,,,-0.0032583776,-0.3505899775,2.1709764301,,,,,,,,,,,,,,,,,,,,
162097.5881925,,,,,,,,,,,-80.2191619873,-2.8589782715,347.7358703613,,,,,,,,,,,,,,
162097665.91,0.0827484131,-0.2496948242,-0.9774932861,,,,,,,,,,,,,,,,,,,,,,,,
162097694.907625,,,,,-0.6219975179,1.0019712169,1.3326785664,,,,,,,,,,,,,,,,,,,,
162097.689223375,,,,,,,,,,,-74.3330535889,0.0000000000,351.4960327148,,,,,,,,,,,,,,
162097770.806667,-0.4011688232,-0.1909790039,-1.3121795654,,,,,,,,,,,,,,,,,,,,,,,,
162097795.944375,,,,,0.2676570106,0.1550953114,1.3186165432,,,,,,,,,,,,,,,,,,,,
162097.790257917,,,,,,,,,,,-73.6603698730,3.0271301270,354.4388122559,,,,,,,,,,,,,,
162097875.681417,-0.8140563965,-0.2497863770,-1.2358245850,,,,,,,,,,,,,,,,,,,,,,,,
162097896.787458,,,,,0.9466794653,-1.7903238912,1.3774074221,,,,,,,,,,,,,,,,,,,,
162097.891295542,,,,,,,,,,,-79.0419464111,-0.3363494873,353.7848510742,,,,,,,,,,,,,,
162097979.357208,-0.5896759033,-0.3878326416,-0.6270446777,,,,,,,,,,,,,,,,,,,,,,,,
162097997.8125,,,,,1.2559648796,-0.4793098740,0.7911188997,,,,,,,,,,,,,,,,,,,,
162097.991402292,,,,,,,,,,,-88.2915344238,-5.2134094238,352.3134765625,,,,,,,,,,,,,,
162098084.201208,-0.6729888916,-0.9362182617,-0.3373107910,,,,,,,,,,,,,,,,,,,,,,,,
162098098.929667,,,,,1.6804325436,2.1298998334,0.8748729192,,,,,,,,,,,,,,,,,,,,
162098.091998375,,,,,,,,,,,-88.1233520508,-7.7360229492,353.7848510742,,,,,,,,,,,,,,
162098189.387125,-0.9434967041,-0.6297302246,-0.2149047852,,,,,,,,,,,,,,,,,,,,,,,,
162098199.966042,,,,,1.5157874029,2.0442501759,1.3497662069,,,,,,,,,,,,,,,,,,,,
162098.192153042,,,,,,,,,,,-82.7417755127,-12.4449005127,354.4388122559,,,,,,,,,,,,,,
162098294.575,-0.9532318115,-0.5118408203,-0.1371002197,,,,,,,,,,,,,,,,,,,,,,,,
162098301.011667,,,,,0.5489672492,0.6218600988,-0.1354041646,,,,,,,,,,,,,,,,,,,,
162098.293086625,,,,,,,,,,,-80.7236785889,-13.1175994873,354.1118164062,,,,,,,,,,,,,,
162098399.316958,-0.8808898926,-0.9303741455,-0.3649444580,,,,,,,,,,,,,,,,,,,,,,,,
162098402.050958,,,,,0.2879947729,-0.0128777155,-0.5513276089,,,,,,,,,,,,,,,,,,,,
162098.394125583,,,,,,,,,,,-79.8828125000,-13.9584808350,353.6213989258,,,,,,,,,,,,,,
162098502.898958,,,,,-0.9302144719,-1.9862470600,-0.9077166196,,,,,,,,,,,,,,,,,,,,
162098.495154333,,,,,,,,,,,-83.2462921143,-10.5949859619,352.3134765625,,,,,,,,,,,,,,
162098504.638542,-0.6927642822,-0.9280242920,-0.4222717285,,,,,,,,,,,,,,,,,,,,,,,,
1451923573999.99,,,,,,,,,,,,,,52.3943564342823,13.1323190499219,291.4453125,0.560000002384186,33.4007568359375,5.0,6.0,,,,,,,
162098603.935833,,,,,-0.6909150669,-0.5374208480,-1.5987038582,,,,,,,,,,,,,,,,,,,,
162098.596191167,,,,,,,,,,,-86.7779541016,-10.4268188477,351.4960327148,,,,,,,,,,,,,,
162098609.545375,-0.2855682373,-1.0397796631,-0.3420715332,,,,,,,,,,,,,,,,,,,,,,,,
162098704.982417,,,,,0.3547828583,-1.7247387557,-1.4933196444,,,,,,,,,,,,,,,,,,,,
162098.697243833,,,,,,,,,,,-93.6731109619,-10.2586364746,352.6404418945,,,,,,,,,,,,,,
162098714.747083,-0.7310180664,-0.9766387939,-0.2572326660,,,,,,,,,,,,,,,,,,,,,,,,
162098806.123792,,,,,-1.5506551058,1.3233263436,-2.1291940957,,,,,,,,,,,,,,,,,,,,
162098.798372458,,,,,,,,,,,-92.1595458984,-10.0904693604,350.8421020508,,,,,,,,,,,,,,
162098819.431125,-0.0074920654,-0.5201568604,-0.4588928223,,,,,,,,,,,,,,,,,,,,,,,,
162098907.154625,,,,,-1.3882496836,-0.0566827206,-1.2030489340,,,,,,,,,,,,,,,,,,,,
162098.899397542,,,,,,,,,,,-91.8231964111,-3.6998443604,349.5342102051,,,,,,,,,,,,,,
162098924.041125,0.7370452881,0.0531768799,-1.2964782715,,,,,,,,,,,,,,,,,,,,,,,,
162099007.6435,,,,,0.1023546018,-1.7900032466,1.9510097104,,,,,,,,,,,,,,,,,,,,
162099.000419708,,,,,,,,,,,-92.1595458984,-2.3544464111,349.8612060547,,,,,,,,,,,,,,
162099028.703,-0.6782989502,-0.4927520752,-1.0435943604,,,,,,,,,,,,,,,,,,,,,,,,
162099108.152125,,,,,-0.5533769113,-0.1168211591,0.1593055027,,,,,,,,,,,,,,,,,,,,
162099.101457333,,,,,,,,,,,-90.8141479492,3.3634796143,353.4578857422,,,,,,,,,,,,,,
162099133.172667,-0.2225189209,-0.9666595459,-0.7474822998,,,,,,,,,,,,,,,,,,,,,,,,
162099209.175875,,,,,-2.3699507825,-0.1624557560,-1.3342498314,,,,,,,,,,,,,,,,,,,,
162099.202409542,,,,,,,,,,,-89.6369171143,7.9041900635,353.6213989258,,,,,,,,,,,,,,
162099237.16,-0.1766052246,-0.2100830078,-1.2670135498,,,,,,,,,,,,,,,,,,,,,,,,
162099310.28275,,,,,0.2716155333,-0.5369864864,-0.6578452640,,,,,,,,,,,,,,,,,,,,
162099.303502667,,,,,,,,,,,-93.3367614746,11.6040191650,353.9483642578,,,,,,,,,,,,,,
162099342.65575,0.1502227783,-0.2240142822,-1.0037536621,,,,,,,,,,,,,,,,,,,,,,,,
162099411.30275,,,,,0.5510999086,-0.0152684352,0.4623162431,,,,,,,,,,,,,,,,,,,,
162099.404522708,,,,,,,,,,,-93.3367614746,9.9222717285,351.9865112305,,,,,,,,,,,,,,
162099447.5445,0.0338287354,-0.4368591309,-0.7988586426,,,,,,,,,,,,,,,,,,,,,,,,
162099512.340125,,,,,0.2586816251,0.6314024713,0.3852065443,,,,,,,,,,,,,,,,,,,,
162099.505562958,,,,,,,,,,,-94.6821594238,7.5678405762,352.3134765625,,,,,,,,,,,,,,
1451923574999.99,,,,,,,,,,,,,,52.3943619663384,13.1322961673263,291.4453125,1.66999995708466,33.7843627929688,5.0,6.0,,,,,,,
162099552.801042,-0.0533447266,-0.3056182861,-0.8647460938,,,,,,,,,,,,,,,,,,,,,,,,
162099613.376708,,,,,0.1530217741,0.0364560122,0.9185958990,,,,,,,,,,,,,,,,,,,,
162099.606601333,,,,,,,,,,,-92.8322296143,5.7179260254,352.1499938965,,,,,,,,,,,,,,
162099657.084042,-0.4117889404,-0.3911132812,-0.9669647217,,,,,,,,,,,,,,,,,,,,,,,,
162099714.413875,,,,,1.0290395863,-0.6488288659,0.3716627722,,,,,,,,,,,,,,,,,,,,
162099.707639792,,,,,,,,,,,-92.6640625000,1.5135650635,350.3516540527,,,,,,,,,,,,,,
162099762.325292,-0.1192779541,-0.5955047607,-0.7074279785,,,,,,,,,,,,,,,,,,,,,,,,
162099815.453542,,,,,1.6230968159,-0.9078694851,0.2958465708,,,,,,,,,,,,,,,,,,,,
162099.808681083,,,,,,,,,,,-97.7092895508,-3.8680114746,351.0056152344,,,,,,,,,,,,,,
162099867.539167,-0.1293640137,-0.6463470459,-0.6089782715,,,,,,,,,,,,,,,,,,,,,,,,
162099916.032042,,,,,-0.2525795241,0.7223246551,0.1354233393,,,,,,,,,,,,,,,,,,,,
162099.909743625,,,,,,,,,,,-93.1685791016,-4.0361938477,348.8802490234,,,,,,,,,,,,,,
162099972.754208,-0.3017578125,-0.7056121826,-0.3227081299,,,,,,,,,,,,,,,,,,,,,,,,
162100017.082833,,,,,-4.8513303555,2.0540423529,-0.2426571185,,,,,,,,,,,,,,,,,,,,
162100.010780333,,,,,,,,,,,-84.7598724365,5.0452270508,351.1690673828,,,,,,,,,,,,,,
162100077.976708,-0.3141632080,-0.0321044922,-1.4047393799,,,,,,,,,,,,,,,,,,,,,,,,
162100117.558292,,,,,-1.5157924629,0.1130669009,-1.5118496529,,,,,,,,,,,,,,,,,,,,
162100.111817792,,,,,,,,,,,-85.0962219238,16.4810791016,362.9401245117,,,,,,,,,,,,,,
162100181.782417,-0.5336151123,-0.1124267578,-1.0555725098,,,,,,,,,,,,,,,,,,,,,,,,
162100218.595667,,,,,-0.4283774508,-1.6097583735,-1.4353359695,,,,,,,,,,,,,,,,,,,,
162100.212855625,,,,,,,,,,,-102.2500000000,16.1447296143,363.5940551758,,,,,,,,,,,,,,
162100286.746833,-0.4127197266,-0.3222808838,-0.7787780762,,,,,,,,,,,,,,,,,,,,,,,,
162100319.63975,,,,,-0.5644271656,0.8110193710,-1.1910838838,,,,,,,,,,,,,,,,,,,,
162100.313897375,,,,,,,,,,,-106.2861785889,14.7993316650,362.6131591797,,,,,,,,,,,,,,
162100391.923125,-0.2556915283,-0.2201690674,-0.9638977051,,,,,,,,,,,,,,,,,,,,,,,,
162100420.675917,,,,,1.9312474572,3.9243577496,1.0408456457,,,,,,,,,,,,,,,,,,,,
162100.414934333,,,,,,,,,,,-99.5592041016,11.4358520508,354.7657775879,,,,,,,,,,,,,,
162100496.472667,-0.1829376221,-0.3092956543,-0.4618530273,,,,,,,,,,,,,,,,,,,,,,,,
1451923575999.99,,,,,,,,,,,,,,52.3943499802168,13.132268926141,241.171875,1.66999995708466,34.77001953125,5.0,6.0,,,,,,,
162100521.78725,,,,,2.8774065408,0.4317807044,0.2286033511,,,,,,,,,,,,,,,,,,,,
162100.515963375,,,,,,,,,,,-96.5320739746,-8.4087219238,344.3026428223,,,,,,,,,,,,,,
162100600.692958,-0.0274353027,-0.7087402344,-1.0053558350,,,,,,,,,,,,,,,,,,,,,,,,
162100622.8175,,,,,-0.3164826071,1.3564741770,-0.1818174697,,,,,,,,,,,,,,,,,,,,
162100.616995833,,,,,,,,,,,-88.2915344238,-7.5678558350,341.5233764648,,,,,,,,,,,,,,
162100705.893125,0.1415252686,-0.8041687012,-0.5248718262,,,,,,,,,,,,,,,,,,,,,,,,
162100723.876375,,,,,0.9051227007,1.0667262452,0.8294300699,,,,,,,,,,,,,,,,,,,,
162100.718061292,,,,,,,,,,,-81.7327270508,-10.0904693604,342.0138549805,,,,,,,,,,,,,,
162100810.817917,-0.0903625488,-1.0082702637,-0.4020996094,,,,,,,,,,,,,,,,,,,,,,,,
162100824.910083,,,,,-0.0527726675,-0.3284876047,0.0864419479,,,,,,,,,,,,,,,,,,,,
162100.819099375,,,,,,,,,,,-86.7779541016,-10.7631683350,343.3217163086,,,,,,,,,,,,,,
162100916.20425,0.0822906494,-1.0219116211,-0.4004669189,,,,,,,,,,,,,,,,,,,,,,,,
162100925.999208,,,,,-0.0868360958,-0.5988027164,0.2094368471,,,,,,,,,,,,,,,,,,,,
162100.920172458,,,,,,,,,,,-87.9551849365,-12.9494323730,344.1391601562,,,,,,,,,,,,,,
162101021.34875,-0.0975952148,-1.0581359863,-0.3190765381,,,,,,,,,,,,,,,,,,,,,,,,
162101027.083542,,,,,-0.0751887607,-0.4718370440,-0.1025910905,,,,,,,,,,,,,,,,,,,,
162101.021226125,,,,,,,,,,,-89.6369171143,-12.9494323730,343.4852294922,,,,,,,,,,,,,,
162101126.622,0.0039367676,-0.9680633545,-0.4049682617,,,,,,,,,,,,,,,,,,,,,,,,
162101128.217667,,,,,0.9647700523,-0.9574833772,-0.2485829183,,,,,,,,,,,,,,,,,,,,
162101.122379625,,,,,,,,,,,-93.8412780762,-12.4449005127,345.9375000000,,,,,,,,,,,,,,
162101228.993417,,,,,-0.1975133422,0.7739612181,-0.1922679802,,,,,,,,,,,,,,,,,,,,
162101231.748042,-0.0472869873,-1.1549682617,-0.4296417236,,,,,,,,,,,,,,,,,,,,,,,,
162101.223639708,,,,,,,,,,,-94.3458099365,-16.6492614746,345.1200561523,,,,,,,,,,,,,,
162101330.040833,,,,,0.0540421964,0.5581727318,-0.4007234524,,,,,,,,,,,,,,,,,,,,
162101.324752625,,,,,,,,,,,-92.4958801270,-18.4991760254,343.9756774902,,,,,,,,,,,,,,
162101336.977375,-0.0238800049,-1.0117187500,-0.1815643311,,,,,,,,,,,,,,,,,,,,,,,,
162101431.083667,,,,,-0.2830921597,0.0475129244,-0.1471803966,,,,,,,,,,,,,,,,,,,,
162101.425781333,,,,,,,,,,,-93.0004119873,-17.3219604492,344.4661254883,,,,,,,,,,,,,,
162101442.3645,0.0209655762,-1.0086212158,-0.1854400635,,,,,,,,,,,,,,,,,,,,,,,,
1451923576999.99,,,,,,,,,,,,,,52.3943440709751,13.1322514079633,241.171875,1.36000001430511,35.3211059570312,5.0,6.0,,,,,,,
162101532.122375,,,,,0.1782682749,-0.3143640624,-0.0697777500,,,,,,,,,,,,,,,,,,,,
162101.526429917,,,,,,,,,,,-94.8503265381,-17.8264923096,344.6296386719,,,,,,,,,,,,,,
162101547.416792,-0.0620727539,-1.0347747803,-0.1471252441,,,,,,,,,,,,,,,,,,,,,,,,
162101633.159917,,,,,0.2951445615,-0.0851053074,0.0489925767,,,,,,,,,,,,,,,,,,,,
162101.627511,,,,,,,,,,,-95.3548431396,-18.3310089111,344.7930908203,,,,,,,,,,,,,,
162101652.7645,-0.0571899414,-1.0799102783,-0.1617584229,,,,,,,,,,,,,,,,,,,,,,,,
162101734.197917,,,,,-0.0523777207,0.0638202587,0.0133474971,,,,,,,,,,,,,,,,,,,,
162101.728689125,,,,,,,,,,,-95.8593750000,-19.1718750000,346.5914611816,,,,,,,,,,,,,,
162101758.073833,-0.1779022217,-1.0655822754,-0.2142333984,,,,,,,,,,,,,,,,,,,,,,,,
162101835.247458,,,,,-0.3377138599,-0.0166988190,-0.1846998090,,,,,,,,,,,,,,,,,,,,
162101.829737083,,,,,,,,,,,-97.0365905762,-18.3310089111,345.7740478516,,,,,,,,,,,,,,
162101862.931208,-0.2077789307,-0.9446258545,-0.3580627441,,,,,,,,,,,,,,,,,,,,,,,,
162101936.299708,,,,,-0.5077223408,-0.2868858326,-0.2901668471,,,,,,,,,,,,,,,,,,,,
162101.9308025,,,,,,,,,,,-94.8503265381,-17.4901428223,344.9566040039,,,,,,,,,,,,,,
162101968.277333,-0.0687713623,-0.7500305176,-0.6241912842,,,,,,,,,,,,,,,,,,,,,,,,
162102037.342,,,,,-0.3252553260,-0.1103747114,-0.1091789520,,,,,,,,,,,,,,,,,,,,
162102.031466417,,,,,,,,,,,-95.0185089111,-14.9675292969,343.1582336426,,,,,,,,,,,,,,
162102073.4675,0.0244140625,-0.7883758545,-0.4563598633,,,,,,,,,,,,,,,,,,,,,,,,
162102138.398458,,,,,-0.1241653585,-0.5277343985,0.3550686155,,,,,,,,,,,,,,,,,,,,
162102.132506333,,,,,,,,,,,-96.7002410889,-11.6040344238,343.4852294922,,,,,,,,,,,,,,
162102178.682625,-0.1041259766,-0.8882904053,-0.1380920410,,,,,,,,,,,,,,,,,,,,,,,,
162102239.4555,,,,,-2.4579019438,1.5377251924,0.0014325144,,,,,,,,,,,,,,,,,,,,
162102.233546792,,,,,,,,,,,-90.8141479492,-2.3544464111,346.9184265137,,,,,,,,,,,,,,
162102283.912583,0.1078948975,-1.1479339600,-0.7451324463,,,,,,,,,,,,,,,,,,,,,,,,
162102340.492875,,,,,-0.5145666648,0.9392817365,-0.1347205311,,,,,,,,,,,,,,,,,,,,
162102.334585292,,,,,,,,,,,-83.4144744873,6.3906097412,350.5151367188,,,,,,,,,,,,,,
162102389.102708,-0.0048522949,-0.6168212891,-0.9213867188,,,,,,,,,,,,,,,,,,,,,,,,
162102441.532833,,,,,-0.1562567159,-0.7751529827,-0.2086128650,,,,,,,,,,,,,,,,,,,,
162102.435623042,,,,,,,,,,,-81.3963775635,11.7722015381,354.4388122559,,,,,,,,,,,,,,
162102493.56875,-0.0417785645,-0.7387390137,-0.8600921631,,,,,,,,,,,,,,,,,,,,,,,,
1451923577999.99,,,,,,,,,,,,,,52.3943437776085,13.132308740181,93.8671875,1.87000000476837,38.6581420898438,5.0,6.0,,,,,,,
162102542.578292,,,,,0.0444758555,-0.4524915755,0.0846123563,,,,,,,,,,,,,,,,,,,,
162102.536660917,,,,,,,,,,,-82.4054260254,13.4539337158,355.4197387695,,,,,,,,,,,,,,
162102597.467,-0.1017150879,-0.6462707520,-0.6399688721,,,,,,,,,,,,,,,,,,,,,,,,
162102643.618708,,,,,-0.3202288758,0.1789995790,0.1828521078,,,,,,,,,,,,,,,,,,,,
162102.637699167,,,,,,,,,,,-81.7327270508,14.7993316650,357.7085571289,,,,,,,,,,,,,,
162102702.351167,-0.0634613037,-0.6062164307,-1.0050354004,,,,,,,,,,,,,,,,,,,,,,,,
162102744.09425,,,,,0.4504539910,-0.0180756733,0.1355423826,,,,,,,,,,,,,,,,,,,,
162102.738750625,,,,,,,,,,,-80.0509796143,16.4810791016,359.3434143066,,,,,,,,,,,,,,
162102807.139708,-0.0341339111,-0.7028503418,-1.1998748779,,,,,,,,,,,,,,,,,,,,,,,,
162102845.134458,,,,,-1.5074354634,1.5356974615,0.2225949934,,,,,,,,,,,,,,,,,,,,
162102.839789458,,,,,,,,,,,-78.8737640381,16.6492462158,367.0272827148,,,,,,,,,,,,,,
162102911.407625,-0.1332397461,-0.5016632080,-0.5628662109,,,,,,,,,,,,,,,,,,,,,,,,
162102946.170542,,,,,0.2021291330,0.6399839752,-0.4193104526,,,,,,,,,,,,,,,,,,,,
162102.94083175,,,,,,,,,,,-78.7055969238,15.4720306396,361.3052368164,,,,,,,,,,,,,,
162103016.309542,-0.0144958496,-0.6715850830,-0.7525329590,,,,,,,,,,,,,,,,,,,,,,,,
162103047.211417,,,,,0.0829952848,-0.6152506656,0.4506864850,,,,,,,,,,,,,,,,,,,,
162103.041870667,,,,,,,,,,,-80.3873291016,13.1175842285,364.2479858398,,,,,,,,,,,,,,
162103121.552792,-0.1653594971,-0.5499572754,-0.7330017090,,,,,,,,,,,,,,,,,,,,,,,,
162103148.247083,,,,,-0.9312246089,0.0685396464,-0.7613697925,,,,,,,,,,,,,,,,,,,,
162103.142664458,,,,,,,,,,,-79.5464630127,15.9765472412,365.0654296875,,,,,,,,,,,,,,
162103226.795417,0.1404724121,-0.4754028320,-1.0707855225,,,,,,,,,,,,,,,,,,,,,,,,
162103249.288333,,,,,0.5741516984,-0.2075273606,-0.1524939356,,,,,,,,,,,,,,,,,,,,
162103.243707833,,,,,,,,,,,-79.5464630127,17.6582946777,366.0463562012,,,,,,,,,,,,,,
162103331.229667,-0.0424194336,-0.6313171387,-0.6238708496,,,,,,,,,,,,,,,,,,,,,,,,
162103350.325167,,,,,0.4302802794,-0.5061473473,0.4356334995,,,,,,,,,,,,,,,,,,,,
162103.344760875,,,,,,,,,,,-80.7236785889,15.1356811523,362.2861633301,,,,,,,,,,,,,,
162103436.47475,0.0092163086,-0.6819000244,-0.7885437012,,,,,,,,,,,,,,,,,,,,,,,,
162103451.366833,,,,,-0.6460573141,1.3793302244,-0.8605757389,,,,,,,,,,,,,,,,,,,,
162103.445800625,,,,,,,,,,,-79.0419464111,18.4991607666,364.9019470215,,,,,,,,,,,,,,
1451923578999.99,,,,,,,,,,,,,,52.3943426460516,13.1323361490044,93.8671875,1.87000000476837,39.5948486328125,5.0,6.0,,,,,,,
162103540.954708,0.3807067871,-0.2049102783,-1.0509338379,,,,,,,,,,,,,,,,,,,,,,,,
162103552.406667,,,,,0.2212168075,0.2098850571,-0.7221912307,,,,,,,,,,,,,,,,,,,,
162103.546842375,,,,,,,,,,,-75.5102844238,21.0217895508,363.4305725098,,,,,,,,,,,,,,
162103646.179542,0.1526031494,0.0188293457,-1.1187438965,,,,,,,,,,,,,,,,,,,,,,,,
162103653.444375,,,,,0.8594516186,0.0145142279,-0.0146551092,,,,,,,,,,,,,,,,,,,,
162103.647886417,,,,,,,,,,,-76.1829833984,19.6763916016,362.4496459961,,,,,,,,,,,,,,
162103751.379083,0.1237792969,-0.3119049072,-1.0390777588,,,,,,,,,,,,,,,,,,,,,,,,
162103754.4835,,,,,-0.0201840979,-0.8581578549,0.6793010214,,,,,,,,,,,,,,,,,,,,
162103.748923708,,,,,,,,,,,-78.2010650635,17.3219451904,359.8338623047,,,,,,,,,,,,,,
162103855.532458,,,,,1.6294955930,-1.8262065248,0.2823741714,,,,,,,,,,,,,,,,,,,,
162103856.587125,-0.1083374023,-0.2711944580,-0.8009490967,,,,,,,,,,,,,,,,,,,,,,,,
162103.849964167,,,,,,,,,,,-82.0690765381,12.7812347412,355.4197387695,,,,,,,,,,,,,,
162103956.568375,,,,,0.8838797300,-1.4300748948,0.6877368504,,,,,,,,,,,,,,,,,,,,
162103.951006083,,,,,,,,,,,-85.0962219238,10.4268035889,353.7848510742,,,,,,,,,,,,,,
162103961.786708,-0.1821441650,-0.5076904297,-0.8230133057,,,,,,,,,,,,,,,,,,,,,,,,
162104057.604792,,,,,0.0634359645,-0.4887595685,0.1813950924,,,,,,,,,,,,,,,,,,,,
162104.052045292,,,,,,,,,,,-86.4416046143,10.4268035889,354.4388122559,,,,,,,,,,,,,,
162104067.000458,-0.2127227783,-0.5185089111,-0.9144897461,,,,,,,,,,,,,,,,,,,,,,,,
162104158.640292,,,,,0.6144309446,0.7529488771,0.1573685857,,,,,,,,,,,,,,,,,,,,
162104.153082,,,,,,,,,,,-87.1143035889,9.0814056396,351.1690673828,,,,,,,,,,,,,,
162104172.165208,-0.3649597168,-0.5095520020,-0.9352722168,,,,,,,,,,,,,,,,,,,,,,,,
162104259.667208,,,,,-0.9043575745,-0.6870111390,-0.7134315613,,,,,,,,,,,,,,,,,,,,
162104.254119333,,,,,,,,,,,-82.7417755127,7.7360076904,350.8421020508,,,,,,,,,,,,,,
162104277.489292,-0.0032958984,-0.3904266357,-1.6949768066,,,,,,,,,,,,,,,,,,,,,,,,
162104360.713167,,,,,0.4267404057,1.1513125024,0.1917862143,,,,,,,,,,,,,,,,,,,,
162104.355155708,,,,,,,,,,,-82.2372589111,4.8770446777,349.6976928711,,,,,,,,,,,,,,
162104381.853833,-0.1813659668,-0.5922241211,-0.6229095459,,,,,,,,,,,,,,,,,,,,,,,,
162104461.753625,,,,,0.1765007349,-0.0860062548,0.2210839158,,,,,,,,,,,,,,,,,,,,
162104.45619325,,,,,,,,,,,-81.9009094238,6.2224426270,352.3134765625,,,,,,,,,,,,,,
162104487.144417,-0.1244049072,-0.5716857910,-0.7308197021,,,,,,,,,,,,,,,,,,,,,,,,
1451923579999.99,,,,,,,,,,,,,,52.394387447324,13.1325616221997,81.2109375,1.87000000476837,38.8692016601562,5.0,6.0,,,,,,,
162104562.808417,,,,,-0.8026426641,0.2386083147,-0.0931216886,,,,,,,,,,,,,,,,,,,,
162104.557230875,,,,,,,,,,,-79.2101135254,4.8770446777,350.6786193848,,,,,,,,,,,,,,
162104592.394792,-0.0096435547,-0.6158905029,-1.2395172119,,,,,,,,,,,,,,,,,,,,,,,,
162104663.874333,,,,,0.6678494287,0.6460866089,0.2917298563,,,,,,,,,,,,,,,,,,,,
162104.658272917,,,,,,,,,,,-80.0509796143,6.0542755127,353.4578857422,,,,,,,,,,,,,,
162104697.644917,-0.1328277588,-0.5101470947,-0.3686065674,,,,,,,,,,,,,,,,,,,,,,,,
162104764.795583,,,,,-1.3806237218,-0.4477378330,-0.3759600490,,,,,,,,,,,,,,,,,,,,
162104.759311083,,,,,,,,,,,-80.0509796143,7.3996582031,354.1118164062,,,,,,,,,,,,,,
162104802.914375,-0.1203765869,-0.4011688232,-0.9319915771,,,,,,,,,,,,,,,,,,,,,,,,
162104865.892083,,,,,-0.4893268218,0.1783665456,-0.1978720700,,,,,,,,,,,,,,,,,,,,
162104.860353208,,,,,,,,,,,-77.5283660889,7.5678405762,354.6022949219,,,,,,,,,,,,,,
162104908.051125,-0.0663146973,-0.4188385010,-1.6070251465,,,,,,,,,,,,,,,,,,,,,,,,
162104966.928083,,,,,0.9642960096,0.1995863468,0.3310889804,,,,,,,,,,,,,,,,,,,,
162104.961395417,,,,,,,,,,,-79.0419464111,6.0542755127,355.0927734375,,,,,,,,,,,,,,
162105012.577708,-0.0598907471,-0.4767608643,-0.5319213867,,,,,,,,,,,,,,,,,,,,,,,,
162105067.964083,,,,,0.2507629819,-0.7666377914,-0.2217113565,,,,,,,,,,,,,,,,,,,,
162105.062434875,,,,,,,,,,,-79.8828125000,5.8860931396,353.6213989258,,,,,,,,,,,,,,
162105117.827167,-0.1041412354,-0.5542297363,-0.8744506836,,,,,,,,,,,,,,,,,,,,,,,,
162105168.999792,,,,,0.2576001154,-0.5501257243,0.3042877261,,,,,,,,,,,,,,,,,,,,
162105.163474375,,,,,,,,,,,-81.7327270508,5.0452270508,351.4960327148,,,,,,,,,,,,,,
162105222.710292,-0.0930175781,-0.4486999512,-0.7240447998,,,,,,,,,,,,,,,,,,,,,,,,
162105270.041125,,,,,0.3595864020,0.2885764073,0.0523239249,,,,,,,,,,,,,,,,,,,,
162105.2645505,,,,,,,,,,,-84.4235229492,2.3544311523,352.1499938965,,,,,,,,,,,,,,
162105327.868042,-0.2093200684,-0.5446472168,-1.0509796143,,,,,,,,,,,,,,,,,,,,,,,,
162105371.089042,,,,,0.4767828005,-0.0980605208,0.4958201412,,,,,,,,,,,,,,,,,,,,
162105.365588667,,,,,,,,,,,-83.9189910889,3.5316467285,350.6786193848,,,,,,,,,,,,,,
162105432.7865,-0.2776641846,-0.5374450684,-0.3817291260,,,,,,,,,,,,,,,,,,,,,,,,
162105472.127375,,,,,-0.8475089390,0.1177900171,-0.7216695175,,,,,,,,,,,,,,,,,,,,
162105.466629,,,,,,,,,,,-83.0781250000,2.6907806396,350.8421020508,,,,,,,,,,,,,,
162105537.631792,-0.1043701172,-0.5051116943,-0.9164886475,,,,,,,,,,,,,,,,,,,,,,,,
1451923580999.99,,,,,,,,,,,,,,52.3944017803784,13.1327011808875,85.078125,8.43000030517578,38.239013671875,5.0,6.0,,,,,,,
162105573.170208,,,,,0.4056540288,0.2167560127,0.5744038997,,,,,,,,,,,,,,,,,,,,
162105.56767725,,,,,,,,,,,-82.5736083984,1.5135650635,351.0056152344,,,,,,,,,,,,,,
162105642.92275,-0.2342681885,-0.4857482910,-1.0387115479,,,,,,,,,,,,,,,,,,,,,,,,
162105674.206208,,,,,-0.2346162362,-0.1189676670,-0.0778210292,,,,,,,,,,,,,,,,,,,,
162105.668715542,,,,,,,,,,,-82.5736083984,3.5316467285,351.6595458984,,,,,,,,,,,,,,
162105748.201917,-0.1669464111,-0.4169158936,-0.7132263184,,,,,,,,,,,,,,,,,,,,,,,,
162105775.247583,,,,,-0.8982275104,0.0472031987,-0.1209980610,,,,,,,,,,,,,,,,,,,,
162105.769438625,,,,,,,,,,,-81.2282104492,4.2043457031,354.2753295898,,,,,,,,,,,,,,
162105853.407917,-0.2524261475,-0.4607543945,-0.9119567871,,,,,,,,,,,,,,,,,,,,,,,,
162105876.284583,,,,,0.5145948943,0.7969243246,0.4463737619,,,,,,,,,,,,,,,,,,,,
162105.870476083,,,,,,,,,,,-79.5464630127,2.8589630127,352.9674377441,,,,,,,,,,,,,,
162105958.615708,-0.1485595703,-0.2742767334,-0.8311920166,,,,,,,,,,,,,,,,,,,,,,,,
162105977.405292,,,,,-0.5958207749,0.8220890664,-0.2690186849,,,,,,,,,,,,,,,,,,,,
162105.971525417,,,,,,,,,,,-73.4921875000,4.2043457031,353.2944030762,,,,,,,,,,,,,,
162106063.784917,-0.1898651123,-0.4526519775,-1.0465087891,,,,,,,,,,,,,,,,,,,,,,,,
162106078.486292,,,,,0.5273594254,-0.3546795277,0.7081324033,,,,,,,,,,,,,,,,,,,,
162106.072590667,,,,,,,,,,,-77.0238494873,4.0361785889,353.4578857422,,,,,,,,,,,,,,
162106169.0435,0.0347595215,-0.3814392090,-0.8258819580,,,,,,,,,,,,,,,,,,,,,,,,
162106179.576583,,,,,-0.5256675191,-0.3557482542,-0.5843803675,,,,,,,,,,,,,,,,,,,,
162106.173628417,,,,,,,,,,,-78.5374145508,2.8589630127,351.3325805664,,,,,,,,,,,,,,
162106273.701875,-0.2632904053,-0.5898284912,-0.9512176514,,,,,,,,,,,,,,,,,,,,,,,,
162106280.6205,,,,,0.1236961095,-0.2311991342,0.3891632027,,,,,,,,,,,,,,,,,,,,
162106.273792208,,,,,,,,,,,-79.0419464111,3.3634796143,352.1499938965,,,,,,,,,,,,,,
162106378.90425,-0.0781860352,-0.6093597412,-0.4362182617,,,,,,,,,,,,,,,,,,,,,,,,
162106381.658083,,,,,0.1474722790,0.3170381425,-0.5148641399,,,,,,,,,,,,,,,,,,,,
162106.374831042,,,,,,,,,,,-78.0328979492,1.3453826904,350.1881713867,,,,,,,,,,,,,,
162106482.625583,,,,,0.1447513274,0.0861303581,-0.1804832260,,,,,,,,,,,,,,,,,,,,
162106484.126125,0.1661071777,-0.6586608887,-0.8624725342,,,,,,,,,,,,,,,,,,,,,,,,
162106.47589325,,,,,,,,,,,-78.0328979492,4.3725280762,347.2454223633,,,,,,,,,,,,,,
1451923581999.99,,,,,,,,,,,,,,52.3944086116295,13.1328285019967,85.078125,8.69999980926514,38.9135131835938,10.0,6.0,,,,,,,
162106583.664958,,,,,-0.0565447689,0.3804336270,-0.2216727407,,,,,,,,,,,,,,,,,,,,
162106.576234583,,,,,,,,,,,-77.3601989746,4.7088775635,348.2263183594,,,,,,,,,,,,,,
162106589.246792,0.1516113281,-0.5265045166,-0.7964935303,,,,,,,,,,,,,,,,,,,,,,,,
162106684.7015,,,,,0.0449115486,0.5396432559,0.1382622690,,,,,,,,,,,,,,,,,,,,
162106.67727625,,,,,,,,,,,-73.8285369873,4.5406951904,346.4279785156,,,,,,,,,,,,,,
162106694.458708,0.1436767578,-0.5967712402,-0.8067779541,,,,,,,,,,,,,,,,,,,,,,,,
162106785.740708,,,,,-0.2572834655,0.4087257188,-0.2748099950,,,,,,,,,,,,,,,,,,,,
162106.778314583,,,,,,,,,,,-70.8013916016,6.5587921143,346.4279785156,,,,,,,,,,,,,,
162106799.418958,0.2702178955,-0.6653289795,-0.8199920654,,,,,,,,,,,,,,,,,,,,,,,,
162106886.777208,,,,,-0.1892434281,-0.4254612894,-0.0049638660,,,,,,,,,,,,,,,,,,,,
162106.879352208,,,,,,,,,,,-69.4560089111,8.9132385254,343.1582336426,,,,,,,,,,,,,,
162106904.623167,0.5051879883,-0.6504211426,-0.9437713623,,,,,,,,,,,,,,,,,,,,,,,,
162106987.814792,,,,,-0.1757350761,-0.1967101329,0.6427350206,,,,,,,,,,,,,,,,,,,,
162106.980393792,,,,,,,,,,,-71.3059234619,10.0904541016,342.0138549805,,,,,,,,,,,,,,
162107008.330875,0.3301239014,-0.7058105469,-0.7087249756,,,,,,,,,,,,,,,,,,,,,,,,
162107088.855875,,,,,-0.2607346560,0.4536276801,0.5336415561,,,,,,,,,,,,,,,,,,,,
162107.081431667,,,,,,,,,,,-72.8194885254,10.9313201904,341.1964111328,,,,,,,,,,,,,,
162107113.051833,0.3654327393,-0.8469848633,-0.8064727783,,,,,,,,,,,,,,,,,,,,,,,,
162107189.89275,,,,,0.0843175443,-0.5572084012,1.4576719016,,,,,,,,,,,,,,,,,,,,
