unix_time,acc_x,acc_y,acc_z,lin_acc_x,lin_acc_y,lin_acc_z,gyr_x,gyr_y,gyr_z,rot_x,rot_y,rot_z,mag_x,mag_y,mag_z,lat,lng,bearing,speed,alt,err_lat,err_lng,pressure,station,run,walk,auto,cycling,unknown,
4329511976626,0.21276855,0.14485168,9.498489,,,,,,,,,,,,,,,,,,,,,,,,,,,
4329532118228,0.21276855,0.13623047,9.479111,,,,,,,,,,,,,,,,,,,,,,,,,,,
4329552259829,0.20220947,0.12834167,9.494003,,,,,,,,,,,,,,,,,,,,,,,,,,,
4329572401431,0.18963623,0.12516785,9.537643,,,,,,,,,,,,,,,,,,,,,,,,,,,
4329592543032,0.20007324,0.12741089,9.53685,,,,,,,,,,,,,,,,,,,,,,,,,,,
4329612684634,0.20661926,0.12736511,9.520615,,,,,,,,,,,,,,,,,,,,,,,,,,,
4329632826235,0.18685913,0.12547302,9.538742,,,,,,,,,,,,,,,,,,,,,,,,,,,
4329652967837,0.17292786,0.1289978,9.547073,,,,,,,,,,,,,,,,,,,,,,,,,,,
4329673109439,0.18600464,0.13624573,9.540787,,,,,,,,,,,,,,,,,,,,,,,,,,,
4329693251040,0.22297668,0.13256836,9.54747,,,,,,,,,,,,,,,,,,,,,,,,,,,
4329713392642,0.20143127,0.11088562,9.534943,,,,,,,,,,,,,,,,,,,,,,,,,,,
4329733534243,0.17878723,0.12973022,9.537842,,,,,,,,,,,,,,,,,,,,,,,,,,,
4329753675845,0.18664551,0.13404846,9.522659,,,,,,,,,,,,,,,,,,,,,,,,,,,
4329773817446,0.18525696,0.12628174,9.499191,,,,,,,,,,,,,,,,,,,,,,,,,,,
4329793959048,0.18740845,0.14781189,9.533646,,,,,,,,,,,,,,,,,,,,,,,,,,,
4329793959048,,,,,,,-9.0026855E-4,-2.4414063E-4,-0.0012512207,,,,,,,,,,,,,,,,,,,,,
4329808393862,,,,-0.022012264,0.028716847,0.081297874,,,,,,,,,,,,,,,,,,,,,,,,
4329814100649,0.19102478,0.15568542,9.548019,,,,,,,,,,,,,,,,,,,,,,,,,,,
4329814100649,,,,,,,-9.0026855E-4,-2.4414063E-4,-0.0015563965,,,,,,,,,,,,,,,,,,,,,
4329828138735,,,,-0.013846949,0.0025013685,0.042334557,,,,,,,,,,,,,,,,,,,,,,,,
4329834242251,0.19610596,0.13412476,9.5086975,,,,,,,,,,,,,,,,,,,,,,,,,,,
4329834242251,,,,,,,-5.79834E-4,-5.79834E-4,-0.0019836426,,,,,,,,,,,,,,,,,,,,,
4329847944644,,,,-0.013055757,-0.006494865,-0.0026979446,,,,,,,,,,,,,,,,,,,,,,,,
4329854383853,0.19223022,0.13374329,9.492905,,,,,,,,,,,,,,,,,,,,,,,,,,,
4329854383853,,,,,,,-5.340576E-4,-0.0013122559,-0.0012512207,,,,,,,,,,,,,,,,,,,,,
4329867720034,,,,-0.023625284,0.011917219,0.042105675,,,,,,,,,,,,,,,,,,,,,,,,
4329854383853,,,,,,,,,,,,,11.790466,16.174316,-44.293213,,,,,,,,,,,,,,,
4329874525454,0.18092346,0.14331055,9.536484,,,,,,,,,,,,,,,,,,,,,,,,,,,
4329874525454,,,,,,,,,,,,,11.90033,16.177368,-42.96112,,,,,,,,,,,,,,,
4329874525454,,,,,,,-0.0012359619,-9.460449E-4,-8.69751E-4,,,,,,,,,,,,,,,,,,,,,
4329887495425,,,,-0.031332508,0.0024109334,0.07099438,,,,,,,,,,,,,,,,,,,,,,,,
4329887495425,,,,,,,,,,321.9837,-0.8131744,1.2438424,,,,,,,,,,,,,,,,,,
4329894667056,0.17381287,0.14482117,9.560059,,,,,,,,,,,,,,,,,,,,,,,,,,,
4329894667056,,,,,,,,,,,,,11.682129,16.619873,-42.530823,,,,,,,,,,,,,,,
4329894667056,,,,,,,1.6784668E-4,-6.4086914E-4,2.1362305E-4,,,,,,,,,,,,,,,,,,,,,
4329907301333,,,,-0.031978935,0.02248171,0.07155037,,,,,,,,,,,,,,,,,,,,,,,,
4329907301333,,,,,,,,,,322.04868,-0.8209772,1.232828,,,,,,,,,,,,,,,,,,
4329914808657,0.15603638,0.13951111,9.545029,,,,,,,,,,,,,,,,,,,,,,,,,,,
4329914808657,,,,,,,-2.4414063E-4,-9.1552734E-4,7.6293945E-5,,,,,,,,,,,,,,,,,,,,,
4329914808657,,,,,,,,,,,,,11.808777,16.108704,-43.15338,,,,,,,,,,,,,,,
4329927076724,,,,-0.07102534,-0.025993973,0.022685051,,,,,,,,,,,,,,,,,,,,,,,,
4329927076724,,,,,,,,,,322.1111,-0.8117436,1.2097428,,,,,,,,,,,,,,,,,,
1451515580285,,,,,,,,,,,,,,,,52.4912859,13.3769152,0.0,0.0,0.0,30.0,30.0,,,,,,,,
4329934950259,0.16261292,0.11987305,9.524979,,,,,,,,,,,,,,,,,,,,,,,,,,,
4329946852114,,,,,,,,,,322.08487,-0.81137985,1.212821,,,,,,,,,,,,,,,,,,
4329946852114,,,,0.011728123,0.002597794,0.044160843,,,,,,,,,,,,,,,,,,,,,,,,
4329934950259,,,,,,,,,,,,,11.949158,15.206909,-43.714905,,,,,,,,,,,,,,,
4329934950259,,,,,,,-9.0026855E-4,1.6784668E-4,-0.0012512207,,,,,,,,,,,,,,,,,,,,,
4329955091860,0.20285034,0.13804626,9.520462,,,,,,,,,,,,,,,,,,,,,,,,,,,
4329955091860,,,,,,,,,,,,,11.849976,15.106201,-43.02368,,,,,,,,,,,,,,,
4329955091860,,,,,,,-4.5776367E-4,0.0012664795,-0.0016937256,,,,,,,,,,,,,,,,,,,,,
4329966627505,,,,-0.011253178,0.004799843,-0.0010213852,,,,,,,,,,,,,,,,,,,,,,,,
4329966627505,,,,,,,,,,322.07376,-0.8124596,1.2078664,,,,,,,,,,,,,,,,,,
4329975233462,0.19309998,0.13426208,9.516861,,,,,,,,,,,,,,,,,,,,,,,,,,,
4329975233462,,,,,,,,,,,,,12.503052,14.73999,-43.522644,,,,,,,,,,,,,,,
4329975233462,,,,,,,-7.6293945E-4,9.613037E-4,-0.0013885498,,,,,,,,,,,,,,,,,,,,,
4329986402896,,,,-0.0015021116,-0.006622568,0.049007416,,,,,,,,,,,,,,,,,,,,,,,,
4329986402896,,,,,,,,,,322.0539,-0.80936766,1.2061856,,,,,,,,,,,,,,,,,,
4329995375064,0.19631958,0.13510132,9.524841,,,,,,,,,,,,,,,,,,,,,,,,,,,
4329995375064,,,,,,,,,,,,,12.518311,15.104675,-44.543457,,,,,,,,,,,,,,,
4329995375064,,,,,,,-0.0010070801,2.2888184E-4,-1.8310547E-4,,,,,,,,,,,,,,,,,,,,,
4330006178286,,,,-0.0059380084,0.009764552,0.0013360977,,,,,,,,,,,,,,,,,,,,,,,,
4330006178286,,,,,,,,,,321.95758,-0.81102383,1.2042183,,,,,,,,,,,,,,,,,,
4330015516665,0.2049408,0.1486969,9.5078125,,,,,,,,,,,,,,,,,,,,,,,,,,,
4330015516665,,,,,,,6.713867E-4,0.0013275146,-1.8310547E-4,,,,,,,,,,,,,,,,,,,,,
4330015516665,,,,,,,,,,,,,11.515808,16.116333,-44.992065,,,,,,,,,,,,,,,
4330025984194,,,,0.017366573,0.01835522,0.019526482,,,,,,,,,,,,,,,,,,,,,,,,
4330025984194,,,,,,,,,,321.98145,-0.8165646,1.2071178,,,,,,,,,,,,,,,,,,
4330035658267,0.20820618,0.11878967,9.486435,,,,,,,,,,,,,,,,,,,,,,,,,,,
4330035658267,,,,,,,,,,,,,12.413025,15.539551,-44.2688,,,,,,,,,,,,,,,
4330035658267,,,,,,,1.8310547E-4,8.392334E-4,-1.8310547E-4,,,,,,,,,,,,,,,,,,,,,
4330045759585,,,,-0.001460284,-0.05096464,-0.042956352,,,,,,,,,,,,,,,,,,,,,,,,
4330045759585,,,,,,,,,,321.9894,-0.8041036,1.2060455,,,,,,,,,,,,,,,,,,
4330055799868,0.19242859,0.09802246,9.5104065,,,,,,,,,,,,,,,,,,,,,,,,,,,
4330065534976,,,,-0.012891829,-0.019087955,0.06626892,,,,,,,,,,,,,,,,,,,,,,,,
4330055799868,,,,,,,-9.0026855E-4,-2.4414063E-4,-1.8310547E-4,,,,,,,,,,,,,,,,,,,,,
4330055799868,,,,,,,,,,,,,12.843323,15.2786255,-44.181824,,,,,,,,,,,,,,,
4330065534976,,,,,,,,,,321.91187,-0.7982595,1.2028755,,,,,,,,,,,,,,,,,,
4330075941470,0.17407227,0.10700989,9.545471,,,,,,,,,,,,,,,,,,,,,,,,,,,
4330075941470,,,,,,,,,,,,,12.350464,15.611267,-44.828796,,,,,,,,,,,,,,,
4330075941470,,,,,,,-3.5095215E-4,-2.4414063E-4,-1.8310547E-4,,,,,,,,,,,,,,,,,,,,,
4330055799868,,,,,,,,,,,,,,,,,,,,,,,1024.387,,,,,,,
4330085340884,,,,-0.035380214,-0.029776394,0.02713871,,,,,,,,,,,,,,,,,,,,,,,,
4330085340884,,,,,,,,,,321.89536,-0.79085517,1.1948168,,,,,,,,,,,,,,,,,,
4330096083071,0.1653595,0.1453247,9.535156,,,,,,,,,,,,,,,,,,,,,,,,,,,
4330096083071,,,,,,,,,,,,,12.168884,14.878845,-44.65027,,,,,,,,,,,,,,,
4330096083071,,,,,,,1.6784668E-4,-2.4414063E-4,-7.6293945E-4,,,,,,,,,,,,,,,,,,,,,
4330105116274,,,,-0.02956836,0.049296096,0.03994274,,,,,,,,,,,,,,,,,,,,,,,,
4330105116274,,,,,,,,,,321.9007,-0.8019465,1.188293,,,,,,,,,,,,,,,,,,
4330089369204,,,,,,,,,,,,,,,,,,,,,,,1024.387,,,,,,,
4330116224673,0.19561768,0.17559814,9.516281,,,,,,,,,,,,,,,,,,,,,,,,,,,
4330116224673,,,,,,,1.6784668E-4,9.460449E-4,-0.0012512207,,,,,,,,,,,,,,,,,,,,,
4330116224673,,,,,,,,,,,,,12.297058,14.926147,-44.407654,,,,,,,,,,,,,,,
4330124891665,,,,0.019867986,0.036069617,-0.0051050186,,,,,,,,,,,,,,,,,,,,,,,,
4330124891665,,,,,,,,,,321.86188,-0.8099478,1.1916364,,,,,,,,,,,,,,,,,,
4330136366274,0.17745972,0.13723755,9.47435,,,,,,,,,,,,,,,,,,,,,,,,,,,
4330136366274,,,,,,,,,,,,,12.518311,15.44342,-44.335938,,,,,,,,,,,,,,,
4330136366274,,,,,,,-4.5776367E-4,6.4086914E-4,-0.0012512207,,,,,,,,,,,,,,,,,,,,,
4330122938540,,,,,,,,,,,,,,,,,,,,,,,1024.387,,,,,,,
4330144667056,,,,-0.04737115,-0.02029553,-0.041755676,,,,,,,,,,,,,,,,,,,,,,,,
4330144667056,,,,,,,,,,321.84528,-0.8054646,1.1810181,,,,,,,,,,,,,,,,,,
4330156507876,0.16416931,0.10470581,9.536758,,,,,,,,,,,,,,,,,,,,,,,,,,,
4330156507876,,,,,,,,,,,,,13.017273,14.736938,-43.844604,,,,,,,,,,,,,,,
4330156507876,,,,,,,3.6621094E-4,0.0023040771,-0.0012512207,,,,,,,,,,,,,,,,,,,,,
4330164442446,,,,-0.020134404,-0.03346096,0.08618736,,,,,,,,,,,,,,,,,,,,,,,,
4330164442446,,,,,,,,,,321.8201,-0.7984803,1.1743069,,,,,,,,,,,,,,,,,,
4330156507876,,,,,,,,,,,,,,,,,,,,,,,1024.387,,,,,,,
4330176649478,0.17468262,0.09750366,9.58049,,,,,,,,,,,,,,,,,,,,,,,,,,,
4330184248355,,,,-0.01940906,-0.034777656,0.06951046,,,,,,,,,,,,,,,,,,,,,,,,
4330176649478,,,,,,,5.645752E-4,-5.79834E-4,-5.79834E-4,,,,,,,,,,,,,,,,,,,,,
4330176649478,,,,,,,,,,,,,12.940979,14.472961,-44.526672,,,,,,,,,,,,,,,
4330184248355,,,,,,,,,,321.73468,-0.79186904,1.1696432,,,,,,,,,,,,,,,,,,
4330196791079,0.16108704,0.114715576,9.593124,,,,,,,,,,,,,,,,,,,,,,,,,,,
4330196791079,,,,,,,,,,,,,12.684631,14.602661,-45.15686,,,,,,,,,,,,,,,
4330196791079,,,,,,,0.0015106201,-7.6293945E-5,-8.544922E-4,,,,,,,,,,,,,,,,,,,,,
4330204023745,,,,-0.039611682,-0.0062334538,0.09481335,,,,,,,,,,,,,,,,,,,,,,,,
4330190077212,,,,,,,,,,,,,,,,,,,,,,,1024.387,,,,,,,
4330204023745,,,,,,,,,,321.6951,-0.7917194,1.1618903,,,,,,,,,,,,,,,,,,
4330216932681,0.14703369,0.15312195,9.594254,,,,,,,,,,,,,,,,,,,,,,,,,,,
4330216932681,,,,,,,0.0023040771,0.0018920898,-5.493164E-4,,,,,,,,,,,,,,,,,,,,,
4330223799136,,,,-0.047150552,0.034971982,0.07784748,,,,,,,,,,,,,,,,,,,,,,,,
4330216932681,,,,,,,,,,,,,12.901306,15.260315,-44.94171,,,,,,,,,,,,,,,
4330223799136,,,,,,,,,,321.67706,-0.8013808,1.1496228,,,,,,,,,,,,,,,,,,
4330223646548,,,,,,,,,,,,,,,,,,,,,,,1024.387,,,,,,,
4330237074282,0.16769409,0.16641235,9.550934,,,,,,,,,,,,,,,,,,,,,,,,,,,
4330237074282,,,,,,,8.69751E-4,0.0054626465,-1.8310547E-4,,,,,,,,,,,,,,,,,,,,,
4330237074282,,,,,,,,,,,,,13.130188,15.270996,-44.27643,,,,,,,,,,,,,,,
4330243574526,,,,-0.0102336705,0.03128043,0.020014763,,,,,,,,,,,,,,,,,,,,,,,,
4330243574526,,,,,,,,,,321.66473,-0.80921775,1.1422429,,,,,,,,,,,,,,,,,,
4330257215884,0.16304016,0.15414429,9.555115,,,,,,,,,,,,,,,,,,,,,,,,,,,
4330257215884,,,,,,,,,,,,,13.18512,15.106201,-44.007874,,,,,,,,,,,,,,,
4330263380435,,,,-0.031977534,0.014200747,0.051543236,,,,,,,,,,,,,,,,,,,,,,,,
4330257215884,,,,,,,-5.79834E-4,0.0042877197,0.0012969971,,,,,,,,,,,,,,,,,,,,,
4330257215884,,,,,,,,,,,,,,,,,,,,,,,1024.387,,,,,,,
4330263380435,,,,,,,,,,321.6372,-0.8115763,1.1296277,,,,,,,,,,,,,,,,,,
4330277357485,0.1690979,0.13381958,9.594086,,,,,,,,,,,,,,,,,,,,,,,,,,,
4330283155825,,,,-0.012938857,-0.006717935,0.0889492,,,,,,,,,,,,,,,,,,,,,,,,
4330277357485,,,,,,,,,,,,,12.477112,14.631653,-44.470215,,,,,,,,,,,,,,,
4330277357485,,,,,,,-0.001663208,-0.0045928955,4.5776367E-4,,,,,,,,,,,,,,,,,,,,,
4330283155825,,,,,,,,,,321.58405,-0.8082777,1.1292913,,,,,,,,,,,,,,,,,,
4330290785220,,,,,,,,,,,,,,,,,,,,,,,1024.387,,,,,,,
4330297499087,0.1953888,0.13272095,9.605942,,,,,,,,,,,,,,,,,,,,,,,,,,,
4330302931216,,,,0.014186621,5.722046E-4,0.086001396,,,,,,,,,,,,,,,,,,,,,,,,
4330297499087,,,,,,,-4.272461E-4,-0.0038604736,-1.8310547E-4,,,,,,,,,,,,,,,,,,,,,
4330297499087,,,,,,,,,,,,,11.335754,15.287781,-43.83087,,,,,,,,,,,,,,,
4330302931216,,,,,,,,,,321.53574,-0.8071308,1.1375983,,,,,,,,,,,,,,,,,,
4330317640689,0.16783142,0.1098938,9.526276,,,,,,,,,,,,,,,,,,,,,,,,,,,
4330322706606,,,,-0.03215559,-0.031694964,-0.020414352,,,,,,,,,,,,,,,,,,,,,,,,
4330317640689,,,,,,,1.6784668E-4,0.002380371,-9.765625E-4,,,,,,,,,,,,,,,,,,,,,
4330317640689,,,,,,,,,,,,,11.01532,15.611267,-43.51654,,,,,,,,,,,,,,,
4330322706606,,,,,,,,,,321.57043,-0.8008233,1.1300721,,,,,,,,,,,,,,,,,,
4330337782290,0.23353577,0.09591675,9.69632,,,,,,,,,,,,,,,,,,,,,,,,,,,
4330337782290,,,,,,,,,,,,,13.047791,14.842224,-44.26422,,,,,,,,,,,,,,,
4330337782290,,,,,,,0.0025939941,0.0023956299,-0.0020599365,,,,,,,,,,,,,,,,,,,,,
4330342512515,,,,0.0684057,-0.03787127,0.23107624,,,,,,,,,,,,,,,,,,,,,,,,
4330342512515,,,,,,,,,,321.57556,-0.7943523,1.1399165,,,,,,,,,,,,,,,,,,
4330324354556,,,,,,,,,,,,,,,,,,,,,,,1024.387,,,,,,,
4330357923892,0.22825623,0.103500366,9.611511,,,,,,,,,,,,,,,,,,,,,,,,,,,
4330362257388,,,,0.027620137,-0.02504605,0.041625977,,,,,,,,,,,,,,,,,,,,,,,,
4330357923892,,,,,,,-0.0024719238,-0.015625,-0.002319336,,,,,,,,,,,,,,,,,,,,,
4330357923892,,,,,,,,,,,,,13.165283,15.127563,-45.26825,,,,,,,,,,,,,,,
4330362257388,,,,,,,,,,321.4695,-0.78868437,1.1559756,,,,,,,,,,,,,,,,,,
4330378065493,0.34529114,0.18971252,9.511353,,,,,,,,,,,,,,,,,,,,,,,,,,,
4330378065493,,,,,,,,,,,,,13.018799,15.275574,-45.484924,,,,,,,,,,,,,,,
4330378065493,,,,,,,-0.0058135986,-0.029922485,-0.0074310303,,,,,,,,,,,,,,,,,,,,,
4330357923892,,,,,,,,,,,,,,,,,,,,,,,1024.387,,,,,,,
4330382063296,,,,0.17376578,0.07795876,-0.031007767,,,,,,,,,,,,,,,,,,,,,,,,
4330382063296,,,,,,,,,,321.34152,-0.799191,1.221982,,,,,,,,,,,,,,,,,,
4330398207095,0.26235962,0.26332092,9.630539,,,,,,,,,,,,,,,,,,,,,,,,,,,
4330398207095,,,,,,,,,,,,,11.109924,15.548706,-43.876648,,,,,,,,,,,,,,,
4330398207095,,,,,,,-0.02368164,-0.06629944,-0.18136597,,,,,,,,,,,,,,,,,,,,,
4330401838687,,,,0.022830978,0.14012803,0.12896729,,,,,,,,,,,,,,,,,,,,,,,,
4330401838687,,,,,,,,,,321.22412,-0.81145835,1.284468,,,,,,,,,,,,,,,,,,
4330391493228,,,,,,,,,,,,,,,,,,,,,,,1024.3838,,,,,,,
4330418348696,1.8542328,0.9090729,8.504089,,,,,,,,,,,,,,,,,,,,,,,,,,,
4330418348696,,,,,,,-0.0026397705,0.0045166016,-0.3851776,,,,,,,,,,,,,,,,,,,,,
4330418348696,,,,,,,,,,,,,11.376953,14.346313,-43.104553,,,,,,,,,,,,,,,
4330421614077,,,,1.8910578,0.8705047,-1.2144737,,,,,,,,,,,,,,,,,,,,,,,,
4330421614077,,,,,,,,,,321.2388,-0.98986024,1.7087101,,,,,,,,,,,,,,,,,,
4330438490298,-0.6352234,0.2097168,8.9131775,,,,,,,,,,,,,,,,,,,,,,,,,,,
4330438490298,,,,,,,,,,,,,11.515808,14.097595,-43.02368,,,,,,,,,,,,,,,
4330438490298,,,,,,,-0.015930176,-0.010040283,-0.348526,,,,,,,,,,,,,,,,,,,,,
4330425062564,,,,,,,,,,,,,,,,,,,,,,,1024.377,,,,,,,
4330441389468,,,,-1.3682133,-0.09431787,-0.45669842,,,,,,,,,,,,,,,,,,,,,,,,
4330441389468,,,,,,,,,,321.9379,-0.9812227,1.5126209,,,,,,,,,,,,,,,,,,
4330458631899,0.03401184,0.1738739,9.554077,,,,,,,,,,,,,,,,,,,,,,,,,,,
4330458631899,,,,,,,,,,,,,13.552856,15.562439,-42.736816,,,,,,,,,,,,,,,
4330458631899,,,,,,,-0.017196655,-0.04034424,-0.0116119385,,,,,,,,,,,,,,,,,,,,,
4330461164858,,,,,,,,,,322.11096,-0.9689079,1.5358628,,,,,,,,,,,,,,,,,,
4330461164858,,,,-0.051041633,0.029064432,0.14944458,,,,,,,,,,,,,,,,,,,,,,,,
4330458631899,,,,,,,,,,,,,,,,,,,,,,,1024.3828,,,,,,,
4330478773501,0.37254333,0.11959839,9.693512,,,,,,,,,,,,,,,,,,,,,,,,,,,
4330480970767,,,,0.12880474,-0.044696257,0.21397114,,,,,,,,,,,,,,,,,,,,,,,,
4330478773501,,,,,,,-0.01977539,-0.037399292,0.092163086,,,,,,,,,,,,,,,,,,,,,
4330478773501,,,,,,,,,,,,,12.812805,15.629578,-43.71643,,,,,,,,,,,,,,,
4330480970767,,,,,,,,,,321.94965,-0.9395184,1.5990064,,,,,,,,,,,,,,,,,,
4330498915103,0.34614563,-0.37727356,9.549973,,,,,,,,,,,,,,,,,,,,,,,,,,,
4330498915103,,,,,,,,,,,,,12.684631,15.611267,-43.844604,,,,,,,,,,,,,,,
4330498915103,,,,,,,-0.057937622,-0.23332214,-0.069488525,,,,,,,,,,,,,,,,,,,,,
4330492201235,,,,,,,,,,,,,,,,,,,,,,,1024.387,,,,,,,
4330500746157,,,,0.0481939,-0.56296587,0.047020912,,,,,,,,,,,,,,,,,,,,,,,,
4330500746157,,,,,,,,,,321.81165,-0.8205793,1.7693973,,,,,,,,,,,,,,,,,,
4330519056704,0.34350586,0.5514984,9.369232,,,,,,,,,,,,,,,,,,,,,,,,,,,
4330519056704,,,,,,,-0.16662598,-0.12384033,-0.40515137,,,,,,,,,,,,,,,,,,,,,
4330519056704,,,,,,,,,,,,,11.291504,16.699219,-44.602966,,,,,,,,,,,,,,,
4330520521548,,,,0.016515821,0.50413173,-0.12801266,,,,,,,,,,,,,,,,,,,,,,,,
4330520521548,,,,,,,,,,322.162,-0.75919443,1.9755942,,,,,,,,,,,,,,,,,,
4330525770571,,,,,,,,,,,,,,,,,,,,,,,1024.3785,,,,,,,
4330539198306,-0.9898224,-0.25099182,9.499451,,,,,,,,,,,,,,,,,,,,,,,,,,,
4330539198306,,,,,,,-0.24742126,-0.1285553,-0.2918396,,,,,,,,,,,,,,,,,,,,,
4330539198306,,,,,,,,,,,,,11.810303,16.15448,-44.04602,,,,,,,,,,,,,,,
4330540357974,,,,-1.3933249,-0.38563907,0.024194717,,,,,,,,,,,,,,,,,,,,,,,,
4330540357974,,,,,,,,,,322.83664,-0.4830425,1.9365684,,,,,,,,,,,,,,,,,,
4330559339907,-0.44334412,0.003250122,9.565567,,,,,,,,,,,,,,,,,,,,,,,,,,,
4330559339907,,,,,,,,,,,,,11.849976,16.116333,-44.007874,,,,,,,,,,,,,,,
4330559339907,,,,,,,-0.26731873,-0.08328247,0.0042877197,,,,,,,,,,,,,,,,,,,,,
4330559339907,,,,,,,,,,,,,,,,,,,,,,,1024.377,,,,,,,
4330560102847,,,,-0.7433903,-0.01613849,0.082452774,,,,,,,,,,,,,,,,,,,,,,,,
4330560102847,,,,,,,,,,323.14496,-0.19214043,1.9645315,,,,,,,,,,,,,,,,,,
4330579481509,0.74360657,-0.82873535,9.885101,,,,,,,,,,,,,,,,,,,,,,,,,,,
4330579481509,,,,,,,,,,,,,11.849976,15.455627,-43.685913,,,,,,,,,,,,,,,
4330579481509,,,,,,,-0.30770874,-0.12120056,0.062942505,,,,,,,,,,,,,,,,,,,,,
4330579878237,,,,0.4147974,-0.80767506,0.3990078,,,,,,,,,,,,,,,,,,,,,,,,
4330579878237,,,,,,,,,,322.89615,0.23146437,2.127231,,,,,,,,,,,,,,,,,,
4330599623110,3.6785889,-0.0771637,9.172714,,,,,,,,,,,,,,,,,,,,,,,,,,,
4330599623110,,,,,,,,,,,,,11.181641,15.779114,-43.351746,,,,,,,,,,,,,,,
4330599623110,,,,,,,-0.36192322,-0.23309326,-0.34732056,,,,,,,,,,,,,,,,,,,,,
4330599623110,,,,3.230486,0.022592582,-0.31211185,,,,,,,,,,,,,,,,,,,,,,,,
4330599623110,,,,,,,,,,322.4167,0.60258394,2.7047317,,,,,,,,,,,,,,,,,,
4330592909243,,,,,,,,,,,,,,,,,,,,,,,1024.377,,,,,,,
4330619429019,,,,0.20039034,-0.37920696,1.3909016,,,,,,,,,,,,,,,,,,,,,,,,
4330619429019,,,,,,,,,,322.99774,0.96284825,3.3132045,,,,,,,,,,,,,,,,,,
4330619764712,0.71829224,-0.5470886,10.910568,,,,,,,,,,,,,,,,,,,,,,,,,,,
4330639204409,,,,-1.8606508,-0.832311,2.2146816,,,,,,,,,,,,,,,,,,,,,,,,
4330619764712,,,,,,,-0.25071716,-0.8090515,-0.82341003,,,,,,,,,,,,,,,,,,,,,
4330619764712,,,,,,,,,,,,,11.178589,15.792847,-43.370056,,,,,,,,,,,,,,,
4330639204409,,,,,,,,,,324.0703,1.1122851,4.1982656,,,,,,,,,,,,,,,,,,
4330626478579,,,,,,,,,,,,,,,,,,,,,,,1024.377,,,,,,,
4330639906314,-1.1135712,-1.0327911,11.720154,,,,,,,,,,,,,,,,,,,,,,,,,,,
4330639906314,,,,,,,0.08792114,-1.1404572,-0.6091919,,,,,,,,,,,,,,,,,,,,,
4330639906314,,,,,,,,,,,,,10.955811,16.630554,-44.45343,,,,,,,,,,,,,,,
4330658979800,,,,,,,,,,324.56036,0.7998464,5.521694,,,,,,,,,,,,,,,,,,
4330658979800,,,,-0.7548129,-1.3174481,1.4153938,,,,,,,,,,,,,,,,,,,,,,,,
4330660047915,0.2453003,-1.4317474,10.910889,,,,,,,,,,,,,,,,,,,,,,,,,,,
4330660047915,,,,,,,,,,,,,9.344482,16.957092,-43.188477,,,,,,,,,,,,,,,
4330660047915,,,,,,,0.69343567,-1.3756561,-0.27548218,,,,,,,,,,,,,,,,,,,,,
4330678755190,,,,0.39056766,-1.1165919,0.6075268,,,,,,,,,,,,,,,,,,,,,,,,
4330660047915,,,,,,,,,,,,,,,,,,,,,,,1024.377,,,,,,,
4330678755190,,,,,,,,,,324.78357,-0.09550803,7.285745,,,,,,,,,,,,,,,,,,
4330680189517,1.5917969,-1.0416107,10.061569,,,,,,,,,,,,,,,,,,,,,,,,,,,
4330680189517,,,,,,,,,,,,,9.259033,17.041016,-43.36548,,,,,,,,,,,,,,,
4330680189517,,,,,,,1.0526733,-1.72995,-0.4591217,,,,,,,,,,,,,,,,,,,,,
4330698561099,,,,-0.19659853,-0.50644535,-0.23749638,,,,,,,,,,,,,,,,,,,,,,,,
4330698561099,,,,,,,,,,325.45343,-1.3457828,9.512593,,,,,,,,,,,,,,,,,,
4330693617251,,,,,,,,,,,,,,,,,,,,,,,1024.377,,,,,,,
4330718336489,,,,-0.98517156,-0.022275358,-0.5754709,,,,,,,,,,,,,,,,,,,,,,,,
4330700331118,1.3594818,-0.22355652,9.180283,,,,,,,,,,,,,,,,,,,,,,,,,,,
4330700331118,,,,,,,1.0594635,-2.326767,-0.6939087,,,,,,,,,,,,,,,,,,,,,
4330700331118,,,,,,,,,,,,,7.965088,17.892456,-45.677185,,,,,,,,,,,,,,,
4330718336489,,,,,,,,,,326.4629,-2.5505903,12.343574,,,,,,,,,,,,,,,,,,
4330720472720,1.9012756,0.17250061,8.460419,,,,,,,,,,,,,,,,,,,,,,,,,,,
4330738111880,,,,6.040743,-2.1602082,-3.243763,,,,,,,,,,,,,,,,,,,,,,,,
4330720472720,,,,,,,,,,,,,5.8380127,15.44342,-45.976257,,,,,,,,,,,,,,,
4330720472720,,,,,,,0.7542572,-3.0385895,-0.43759155,,,,,,,,,,,,,,,,,,,,,
4330727186587,,,,,,,,,,,,,,,,,,,,,,,1024.377,,,,,,,
4330738111880,,,,,,,,,,325.58035,-3.1520703,16.958393,,,,,,,,,,,,,,,,,,
4330740614321,8.796295,-0.614624,7.274994,,,,,,,,,,,,,,,,,,,,,,,,,,,
4330740614321,,,,,,,,,,,,,5.456543,15.144348,-46.141052,,,,,,,,,,,,,,,
4330757887271,,,,4.7090445,5.927677,8.015886,,,,,,,,,,,,,,,,,,,,,,,,
4330740614321,,,,,,,0.4078827,-4.4693146,0.018676758,,,,,,,,,,,,,,,,,,,,,
4330757887271,,,,,,,,,,326.39047,-4.2349834,23.499311,,,,,,,,,,,,,,,,,,
4330760755923,,,,,,,,,,,,,,,,,,,,,,,1024.377,,,,,,,
4330760755923,9.064835,5.8255463,16.746109,,,,,,,,,,,,,,,,,,,,,,,,,,,
4330777662661,,,,7.08539,0.28274715,7.2932167,,,,,,,,,,,,,,,,,,,,,,,,
4330760755923,,,,,,,0.8888855,-6.6148224,0.33638,,,,,,,,,,,,,,,,,,,,,
4330760755923,,,,,,,,,,,,,2.0324707,13.160706,-47.312927,,,,,,,,,,,,,,,
4330777662661,,,,,,,,,,327.21576,-7.0912876,29.248886,,,,,,,,,,,,,,,,,,
4330780897524,10.151978,0.36080933,13.761154,,,,,,,,,,,,,,,,,,,,,,,,,,,
4330780897524,,,,,,,,,,,,,-2.6794434,13.592529,-47.45331,,,,,,,,,,,,,,,
4330780897524,,,,,,,3.6469421,-2.051361,-1.7587738,,,,,,,,,,,,,,,,,,,,,
4330794325259,,,,,,,,,,,,,,,,,,,,,,,1024.377,,,,,,,
4330797468569,,,,-3.741416,-6.424567,-5.163294,,,,,,,,,,,,,,,,,,,,,,,,
4330797468569,,,,,,,,,,329.79126,-11.871412,30.068071,,,,,,,,,,,,,,,,,,
4330801039126,0.51841736,-4.0794067,4.003937,,,,,,,,,,,,,,,,,,,,,,,,,,,
4330801039126,,,,,,,2.4299164,0.42662048,-3.0007324,,,,,,,,,,,,,,,,,,,,,
4330817243960,,,,-6.931356,-3.5489893,-0.11123276,,,,,,,,,,,,,,,,,,,,,,,,
4330801039126,,,,,,,,,,,,,-3.9459229,13.044739,-47.15576,,,,,,,,,,,,,,,
4330817243960,,,,,,,,,,333.17337,-15.176705,28.362438,,,,,,,,,,,,,,,,,,
4330821180728,-1.058075,-1.1256104,8.03421,,,,,,,,,,,,,,,,,,,,,,,,,,,
4330821180728,,,,,,,,,,,,,-9.7595215,9.761047,-46.466064,,,,,,,,,,,,,,,
4330836988833,,,,-0.3638506,-2.7947123,-0.5415087,,,,,,,,,,,,,,,,,,,,,,,,
4330836988833,,,,,,,,,,333.9681,-16.473824,27.153019,,,,,,,,,,,,,,,,,,
4330821180728,,,,,,,0.93325806,0.6747894,-1.6663818,,,,,,,,,,,,,,,,,,,,,
4330841322329,4.6641846,0.004211426,8.892303,,,,,,,,,,,,,,,,,,,,,,,,,,,
4330841322329,,,,,,,,,,,,,-10.02655,6.5307617,-49.093628,,,,,,,,,,,,,,,
4330841322329,,,,,,,0.6717377,0.8947449,-0.62779236,,,,,,,,,,,,,,,,,,,,,
4330827894595,,,,,,,,,,,,,,,,,,,,,,,1024.3772,,,,,,,
4330856794741,,,,2.577345,-1.2925987,4.7696753,,,,,,,,,,,,,,,,,,,,,,,,
4330856794741,,,,,,,,,,333.81973,-17.168056,26.119371,,,,,,,,,,,,,,,,,,
4330861463931,7.9258423,2.0040283,14.122955,,,,,,,,,,,,,,,,,,,,,,,,,,,
4330861463931,,,,,,,,,,,,,-9.396362,5.8151245,-48.706055,,,,,,,,,,,,,,,
4330876570132,,,,7.124651,1.4843099,8.846262,,,,,,,,,,,,,,,,,,,,,,,,
4330861463931,,,,,,,0.8526764,0.7307434,-0.6108551,,,,,,,,,,,,,,,,,,,,,
4330876570132,,,,,,,,,,333.54996,-18.429749,25.274742,,,,,,,,,,,,,,,,,,
4330861463931,,,,,,,,,,,,,,,,,,,,,,,1024.387,,,,,,,
4330881605532,12.023804,4.021225,17.692993,,,,,,,,,,,,,,,,,,,,,,,,,,,
4330881605532,,,,,,,1.8111115,0.97987366,-0.93341064,,,,,,,,,,,,,,,,,,,,,
4330896345522,,,,9.837175,-0.13236928,10.106215,,,,,,,,,,,,,,,,,,,,,,,,
4330881605532,,,,,,,,,,,,,-7.270813,3.074646,-47.61963,,,,,,,,,,,,,,,
4330896345522,,,,,,,,,,332.8936,-20.921932,24.230574,,,,,,,,,,,,,,,,,,
4330901747134,14.216202,2.8224792,17.24707,,,,,,,,,,,,,,,,,,,,,,,,,,,
4330901747134,,,,,,,,,,,,,-7.020569,1.8218994,-48.109436,,,,,,,,,,,,,,,
4330916120913,,,,10.9022255,-2.0892844,4.855565,,,,,,,,,,,,,,,,,,,,,,,,
4330901747134,,,,,,,3.3312988,1.2743378,-1.7411804,,,,,,,,,,,,,,,,,,,,,
4330895033267,,,,,,,,,,,,,,,,,,,,,,,1024.384,,,,,,,
4330916120913,,,,,,,,,,332.33334,-25.320562,22.713583,,,,,,,,,,,,,,,,,,
4330921888735,13.839325,1.6714172,11.749725,,,,,,,,,,,,,,,,,,,,,,,,,,,
4330921888735,,,,,,,,,,,,,-6.2911987,1.0848999,-48.539734,,,,,,,,,,,,,,,
4330921888735,,,,,,,4.3162384,2.1031647,-2.9227905,,,,,,,,,,,,,,,,,,,,,
4330935896304,,,,8.001575,-3.89503,-0.44551563,,,,,,,,,,,,,,,,,,,,,,,,
4330935896304,,,,,,,,,,332.4508,-30.751282,19.458998,,,,,,,,,,,,,,,,,,
4330928602603,,,,,,,,,,,,,,,,,,,,,,,1024.377,,,,,,,
4330942030337,11.621429,1.0369263,6.588867,,,,,,,,,,,,,,,,,,,,,,,,,,,
4330942030337,,,,,,,4.0549927,3.8458252,-4.1738434,,,,,,,,,,,,,,,,,,,,,
4330942030337,,,,,,,,,,,,,-4.1015625,-2.9968262,-48.669434,,,,,,,,,,,,,,,
4330955671694,,,,,,,,,,331.81808,-35.651417,13.860219,,,,,,,,,,,,,,,,,,
4330955671694,,,,9.674331,-4.6893888,-4.1795073,,,,,,,,,,,,,,,,,,,,,,,,
4330962171939,11.181747,0.747345,3.3593597,,,,,,,,,,,,,,,,,,,,,,,,,,,
4330962171939,,,,,,,,,,,,,-3.1799316,-8.099365,-46.632385,,,,,,,,,,,,,,,
4330975477603,,,,,,,,,,330.5947,-39.46081,5.704755,,,,,,,,,,,,,,,,,,
4330962171939,,,,,,,3.1658173,5.7914276,-5.2034454,,,,,,,,,,,,,,,,,,,,,
4330962171939,,,,,,,,,,,,,,,,,,,,,,,1024.377,,,,,,,
4330975477603,,,,8.287312,-6.2475505,-5.3355002,,,,,,,,,,,,,,,,,,,,,,,,
4330982313540,7.117752,-0.832077,1.997818,,,,,,,,,,,,,,,,,,,,,,,,,,,
4330982313540,,,,,,,,,,,,,-0.46691895,-9.902954,-46.34857,,,,,,,,,,,,,,,
4330982313540,,,,,,,2.5395203,7.0193634,-6.140579,,,,,,,,,,,,,,,,,,,,,
4330995252993,,,,3.7922459,-9.291011,-6.0148573,,,,,,,,,,,,,,,,,,,,,,,,
4330995252993,,,,,,,,,,329.61584,-42.541355,-4.5190225,,,,,,,,,,,,,,,,,,
4330995741274,,,,,,,,,,,,,,,,,,,,,,,1024.377,,,,,,,
4331002455142,0.4832611,-3.7613678,0.85572815,,,,,,,,,,,,,,,,,,,,,,,,,,,
4331002455142,,,,,,,2.1742249,8.010101,-6.324005,,,,,,,,,,,,,,,,,,,,,
4331002455142,,,,,,,,,,,,,8.073425,-14.538574,-44.6167,,,,,,,,,,,,,,,
4331015028384,,,,-1.2109783,-12.417164,-6.400393,,,,,,,,,,,,,,,,,,,,,,,,
4331015028384,,,,,,,,,,328.26935,-45.45175,-16.235174,,,,,,,,,,,,,,,,,,
4331022596743,-3.4440918,-4.9793243,-0.32476807,,,,,,,,,,,,,,,,,,,,,,,,,,,
4331022596743,,,,,,,1.9133759,9.376831,-5.6928864,,,,,,,,,,,,,,,,,,,,,
4331034803774,,,,1.8785315,-10.1425,-6.563174,,,,,,,,,,,,,,,,,,,,,,,,
4331034803774,,,,,,,,,,324.17596,-49.588215,-28.277584,,,,,,,,,,,,,,,,,,
4331022596743,,,,,,,,,,,,,14.019775,-16.67633,-42.530823,,,,,,,,,,,,,,,
4331029310610,,,,,,,,,,,,,,,,,,,,,,,1024.377,,,,,,,
4331042738345,-0.30752563,-2.449356,-3.6261902,,,,,,,,,,,,,,,,,,,,,,,,,,,
4331042738345,,,,,,,,,,,,,18.843079,-16.812134,-39.634705,,,,,,,,,,,,,,,
4331042738345,,,,,,,1.7268372,10.959961,-4.8722076,,,,,,,,,,,,,,,,,,,,,
4331054579165,,,,9.228216,-6.6045327,-11.268936,,,,,,,,,,,,,,,,,,,,,,,,
4331054579165,,,,,,,,,,315.98718,-57.429302,-40.002193,,,,,,,,,,,,,,,,,,
4331062879946,,,,,,,,,,,,,,,,,,,,,,,1024.3865,,,,,,,
4331062879946,6.3404083,0.8379364,-11.075623,,,,,,,,,,,,,,,,,,,,,,,,,,,
4331074354556,,,,17.700544,-2.7810302,-17.982937,,,,,,,,,,,,,,,,,,,,,,,,
4331062879946,,,,,,,1.8509827,11.65332,-4.898102,,,,,,,,,,,,,,,,,,,,,
4331074354556,,,,,,,,,,302.62415,-71.73086,-50.272503,,,,,,,,,,,,,,,,,,
4331062879946,,,,,,,,,,,,,30.73883,-15.95459,-30.560303,,,,,,,,,,,,,,,
4331083021548,7.001129,-1.1834717,-17.439682,,,,,,,,,,,,,,,,,,,,,,,,,,,
4331094129946,,,,9.941777,-10.852919,-18.888645,,,,,,,,,,,,,,,,,,,,,,,,
4331083021548,,,,,,,,,,,,,37.23297,-14.489746,-23.99292,,,,,,,,,,,,,,,
4331083021548,,,,,,,1.9430847,10.5954895,-5.7741547,,,,,,,,,,,,,,,,,,,,,
4331094129946,,,,,,,,,,284.6431,-92.46027,-58.88715,,,,,,,,,,,,,,,,,,
4331103163149,0.16667175,-6.64946,-19.286835,,,,,,,,,,,,,,,,,,,,,,,,,,,
4331103163149,,,,,,,,,,,,,40.740967,-11.7248535,-17.097473,,,,,,,,,,,,,,,
4331103163149,,,,,,,1.3081665,8.390137,-5.951935,,,,,,,,,,,,,,,,,,,,,
4331113905337,,,,5.565569,-10.692596,-17.683504,,,,,,,,,,,,,,,,,,,,,,,,
4331113905337,,,,,,,,,,262.65732,-117.40688,-63.197174,,,,,,,,,,,,,,,,,,
4331096449282,,,,,,,,,,,,,,,,,,,,,,,1024.3862,,,,,,,
4331123304751,-3.991394,-7.0549927,-19.524445,,,,,,,,,,,,,,,,,,,,,,,,,,,
4331133680728,,,,2.1550813,-9.644993,-16.663576,,,,,,,,,,,,,,,,,,,,,,,,
4331123304751,,,,,,,0.14334106,5.108368,-4.6640167,,,,,,,,,,,,,,,,,,,,,
4331123304751,,,,,,,,,,,,,45.547485,-3.9611816,-3.2836914,,,,,,,,,,,,,,,
4331133680728,,,,,,,,,,245.16797,-136.8038,-63.749493,,,,,,,,,,,,,,,,,,
4331143446353,-6.003128,-6.1900787,-18.922638,,,,,,,,,,,,,,,,,,,,,,,,,,,
4331143446353,,,,,,,,,,,,,46.24939,0.98114014,2.9144287,,,,,,,,,,,,,,,
4331153486636,,,,1.8111734,-7.572257,-15.133587,,,,,,,,,,,,,,,,,,,,,,,,
4331143446353,,,,,,,-1.1409149,1.0973511,-3.0503693,,,,,,,,,,,,,,,,,,,,,
4331130018618,,,,,,,,,,,,,,,,,,,,,,,1024.377,,,,,,,
4331153486636,,,,,,,,,,237.1563,-145.57764,-64.39731,,,,,,,,,,,,,,,,,,
4331163587954,-5.73407,-5.247696,-15.609543,,,,,,,,,,,,,,,,,,,,,,,,,,,
4331163587954,,,,,,,,,,,,,44.969177,3.8146973,5.680847,,,,,,,,,,,,,,,
4331163587954,,,,,,,-2.662857,-2.1165314,-1.661087,,,,,,,,,,,,,,,,,,,,,
4331173262026,,,,2.8934383,-7.0839267,-10.173885,,,,,,,,,,,,,,,,,,,,,,,,
4331173262026,,,,,,,,,,236.73636,-145.23468,-66.960594,,,,,,,,,,,,,,,,,,
4331163587954,,,,,,,,,,,,,,,,,,,,,,,1024.377,,,,,,,
4331183729556,-3.9910736,-5.6539917,-10.916046,,,,,,,,,,,,,,,,,,,,,,,,,,,
4331183729556,,,,,,,-4.612686,-3.9848938,-0.98223877,,,,,,,,,,,,,,,,,,,,,
4331183729556,,,,,,,,,,,,,43.302917,7.50885,7.546997,,,,,,,,,,,,,,,
4331193037417,,,,5.4805937,-8.116291,-6.921238,,,,,,,,,,,,,,,,,,,,,,,,
4331193037417,,,,,,,,,,241.99142,-137.02225,-70.84644,,,,,,,,,,,,,,,,,,
4331203871157,-3.7300873,-8.218857,-5.7612305,,,,,,,,,,,,,,,,,,,,,,,,,,,
4331212843325,,,,,,,,,,258.1624,-114.89586,-75.640236,,,,,,,,,,,,,,,,,,
4331212843325,,,,4.0020084,-11.902224,-2.1358984,,,,,,,,,,,,,,,,,,,,,,,,
4331203871157,,,,,,,,,,,,,42.910767,8.380127,6.8511963,,,,,,,,,,,,,,,
4331203871157,,,,,,,-6.851715,-5.882324,-0.76782227,,,,,,,,,,,,,,,,,,,,,
4331197157290,,,,,,,,,,,,,,,,,,,,,,,1024.377,,,,,,,
4331224012759,1.3483887,-7.316345,6.887329,,,,,,,,,,,,,,,,,,,,,,,,,,,
4331224012759,,,,,,,-8.374603,-10.69455,0.5191498,,,,,,,,,,,,,,,,,,,,,
4331232618716,,,,14.048671,-7.3606915,13.237661,,,,,,,,,,,,,,,,,,,,,,,,
4331232618716,,,,,,,,,,304.75342,-57.684933,-73.46316,,,,,,,,,,,,,,,,,,
4331224012759,,,,,,,,,,,,,42.53235,7.998657,4.814148,,,,,,,,,,,,,,,
4331230726626,,,,,,,,,,,,,,,,,,,,,,,1024.377,,,,,,,
4331244154360,11.730499,-2.7370758,17.424332,,,,,,,,,,,,,,,,,,,,,,,,,,,
4331244154360,,,,,,,-6.6883087,-17.139618,2.4963531,,,,,,,,,,,,,,,,,,,,,
4331252363589,,,,22.824268,-3.1176558,15.137806,,,,,,,,,,,,,,,,,,,,,,,,
4331244154360,,,,,,,,,,,,,42.43622,8.099365,0.36773682,,,,,,,,,,,,,,,
4331252363589,,,,,,,,,,325.73044,-26.923502,-54.78358,,,,,,,,,,,,,,,,,,
4331264295962,17.178955,-3.2497559,19.47496,,,,,,,,,,,,,,,,,,,,,,,,,,,
4331264295962,,,,,,,,,,,,,42.5766,8.380127,-1.6799927,,,,,,,,,,,,,,,
4331264295962,,,,,,,-3.8950043,-23.131363,4.438919,,,,,,,,,,,,,,,,,,,,,
4331272169497,,,,21.811083,-7.117077,12.342997,,,,,,,,,,,,,,,,,,,,,,,,
4331264295962,,,,,,,,,,,,,,,,,,,,,,,1024.377,,,,,,,
4331272169497,,,,,,,,,,328.4647,-18.068733,-26.923439,,,,,,,,,,,,,,,,,,
4331284437564,18.947464,-1.9491577,19.47496,,,,,,,,,,,,,,,,,,,,,,,,,,,
4331284437564,,,,,,,,,,,,,39.157104,8.274841,-14.605713,,,,,,,,,,,,,,,
4331284437564,,,,,,,-1.8968658,-27.284454,7.645111,,,,,,,,,,,,,,,,,,,,,
4331291944888,,,,18.601505,-2.7206013,11.355146,,,,,,,,,,,,,,,,,,,,,,,,
4331291944888,,,,,,,,,,326.9891,-17.178328,6.211451,,,,,,,,,,,,,,,,,,
4331297865298,,,,,,,,,,,,,,,,,,,,,,,1024.377,,,,,,,
4331304579165,19.526505,6.339554,19.318329,,,,,,,,,,,,,,,,,,,,,,,,,,,
4331304579165,,,,,,,0.6453247,-27.580093,9.683823,,,,,,,,,,,,,,,,,,,,,
4331304579165,,,,,,,,,,,,,23.301697,8.319092,-36.87439,,,,,,,,,,,,,,,
4331311720278,,,,13.9585705,7.6245966,12.886921,,,,,,,,,,,,,,,,,,,,,,,,
4331311720278,,,,,,,,,,327.98917,-20.861313,39.361385,,,,,,,,,,,,,,,,,,
4331324720767,19.526505,16.105545,19.390976,,,,,,,,,,,,,,,,,,,,,,,,,,,
4331324720767,,,,,,,1.2436981,-18.580978,6.304016,,,,,,,,,,,,,,,,,,,,,
4331331495669,,,,,,,,,,336.2962,-28.402035,62.667316,,,,,,,,,,,,,,,,,,
4331331495669,,,,11.525287,17.298649,15.837227,,,,,,,,,,,,,,,,,,,,,,,,
4331324720767,,,,,,,,,,,,,15.522766,8.380127,-44.992065,,,,,,,,,,,,,,,
4331331434634,,,,,,,,,,,,,,,,,,,,,,,1024.387,,,,,,,
4331344862368,19.526505,10.939468,19.47496,,,,,,,,,,,,,,,,,,,,,,,,,,,
4331344862368,,,,,,,,,,,,,-4.5684814,8.380127,-46.321106,,,,,,,,,,,,,,,
4331344862368,,,,,,,0.370224,-0.3728943,-1.7430878,,,,,,,,,,,,,,,,,,,,,
4331351271060,,,,11.149083,4.8639107,16.313309,,,,,,,,,,,,,,,,,,,,,,,,
4331351271060,,,,,,,,,,342.64728,-33.383274,65.67831,,,,,,,,,,,,,,,,,,
4331371076968,,,,,,,,,,341.34723,-34.4978,53.337177,,,,,,,,,,,,,,,,,,
4331365003970,19.526505,1.2136383,8.669449,,,,,,,,,,,,,,,,,,,,,,,,,,,
4331371076968,,,,12.083268,-4.460101,-0.6755266,,,,,,,,,,,,,,,,,,,,,,,,
4331365003970,,,,,,,,,,,,,-23.6969,9.0789795,-39.678955,,,,,,,,,,,,,,,
4331365003970,,,,,,,0.12094116,10.50737,-7.5427856,,,,,,,,,,,,,,,,,,,,,
4331385145571,11.54921,-1.750534,12.6219635,,,,,,,,,,,,,,,,,,,,,,,,,,,
4331385145571,,,,,,,,,,,,,-27.894592,9.388733,-36.460876,,,,,,,,,,,,,,,
4331390852358,,,,2.6480594,-6.1956463,10.095371,,,,,,,,,,,,,,,,,,,,,,,,
4331385145571,,,,,,,0.07582092,10.873688,-8.272766,,,,,,,,,,,,,,,,,,,,,
4331365003970,,,,,,,,,,,,,,,,,,,,,,,1024.387,,,,,,,
4331390852358,,,,,,,,,,340.485,-35.139835,37.357853,,,,,,,,,,,,,,,,,,
4331405287173,2.0720062,-1.2727661,15.004944,,,,,,,,,,,,,,,,,,,,,,,,,,,
4331405287173,,,,,,,,,,,,,-21.313477,4.724121,-40.29236,,,,,,,,,,,,,,,
4331405287173,,,,,,,2.5061798,8.478668,-6.781662,,,,,,,,,,,,,,,,,,,,,
4331410627749,,,,-4.0694294,-6.2001114,7.803881,,,,,,,,,,,,,,,,,,,,,,,,
4331410627749,,,,,,,,,,340.49252,-37.349903,24.220367,,,,,,,,,,,,,,,,,,
4331398573306,,,,,,,,,,,,,,,,,,,,,,,1024.387,,,,,,,
4331425428774,0.4256134,-0.7519989,13.6141205,,,,,,,,,,,,,,,,,,,,,,,,,,,
4331425428774,,,,,,,3.6742096,7.8343506,-5.0099335,,,,,,,,,,,,,,,,,,,,,
4331425428774,,,,,,,,,,,,,-8.753967,0.6057739,-44.5343,,,,,,,,,,,,,,,
4331430403140,,,,-1.5698724,-6.6040606,6.4347057,,,,,,,,,,,,,,,,,,,,,,,,
4331430403140,,,,,,,,,,338.72958,-40.934307,13.735304,,,,,,,,,,,,,,,,,,
4331445570376,-0.20787048,0.3132782,18.033844,,,,,,,,,,,,,,,,,,,,,,,,,,,
4331445570376,,,,,,,,,,,,,-5.3512573,-0.19683838,-45.484924,,,,,,,,,,,,,,,
4331445570376,,,,,,,4.2918396,9.563904,-4.344223,,,,,,,,,,,,,,,,,,,,,
4331432142642,,,,,,,,,,,,,,,,,,,,,,,1024.383,,,,,,,
4331450178530,,,,-1.0038037,-5.9818716,12.804267,,,,,,,,,,,,,,,,,,,,,,,,
4331450178530,,,,,,,,,,334.0886,-44.652454,3.270203,,,,,,,,,,,,,,,,,,
4331465711978,3.519577,-3.1645355,15.287613,,,,,,,,,,,,,,,,,,,,,,,,,,,
4331465711978,,,,,,,,,,,,,2.2445679,-5.999756,-46.255493,,,,,,,,,,,,,,,
4331465711978,,,,,,,5.5865326,12.92955,-3.8768616,,,,,,,,,,,,,,,,,,,,,
4331469984439,,,,,,,,,,324.80115,-50.521988,-8.120048,,,,,,,,,,,,,,,,,,
4331469984439,,,,5.9365864,-11.344075,8.253202,,,,,,,,,,,,,,,,,,,,,,,,
4331465711978,,,,,,,,,,,,,,,,,,,,,,,1024.377,,,,,,,
4331485853579,8.970642,-5.321518,6.093155,,,,,,,,,,,,,,,,,,,,,,,,,,,
4331489729312,,,,13.025388,-13.180813,-0.10768747,,,,,,,,,,,,,,,,,,,,,,,,
4331489729312,,,,,,,,,,310.6592,-60.818695,-18.996733,,,,,,,,,,,,,,,,,,
4331485853579,,,,,,,6.688919,15.094955,-3.157074,,,,,,,,,,,,,,,,,,,,,
4331485853579,,,,,,,,,,,,,14.668274,-12.867737,-40.79895,,,,,,,,,,,,,,,
4331505995181,10.077179,-6.451111,-4.6624756,,,,,,,,,,,,,,,,,,,,,,,,,,,
4331509535220,,,,14.123214,-14.401714,-8.579894,,,,,,,,,,,,,,,,,,,,,,,,
4331505995181,,,,,,,,,,,,,17.193604,-14.154053,-39.414978,,,,,,,,,,,,,,,
4331505995181,,,,,,,6.5346527,14.683823,-2.43956,,,,,,,,,,,,,,,,,,,,,
4331499281314,,,,,,,,,,,,,,,,,,,,,,,1024.377,,,,,,,
4331509535220,,,,,,,,,,294.1225,-75.52696,-26.720924,,,,,,,,,,,,,,,,,,
4331526136782,9.602951,-5.918091,-11.667496,,,,,,,,,,,,,,,,,,,,,,,,,,,
4331529310610,,,,13.829494,-13.436766,-12.510061,,,,,,,,,,,,,,,,,,,,,,,,
4331526136782,,,,,,,4.96698,12.464706,-1.4075165,,,,,,,,,,,,,,,,,,,,,
4331526136782,,,,,,,,,,,,,32.473755,-19.941711,-29.359436,,,,,,,,,,,,,,,
4331529310610,,,,,,,,,,278.53897,-90.97984,-29.424414,,,,,,,,,,,,,,,,,,
4331532850649,,,,,,,,,,,,,,,,,,,,,,,1024.377,,,,,,,
4331546278384,10.619507,-4.132324,-16.80545,,,,,,,,,,,,,,,,,,,,,,,,,,,
4331549086001,,,,14.849565,-11.303461,-15.729962,,,,,,,,,,,,,,,,,,,,,,,,
4331546278384,,,,,,,3.2813568,9.332291,-0.44752502,,,,,,,,,,,,,,,,,,,,,
4331546278384,,,,,,,,,,,,,40.696716,-20.039368,-10.404968,,,,,,,,,,,,,,,
4331549086001,,,,,,,,,,266.84915,-103.33615,-27.876358,,,,,,,,,,,,,,,,,,
4331566419985,11.289185,-2.8580627,-19.273834,,,,,,,,,,,,,,,,,,,,,,,,,,,
4331566419985,,,,,,,,,,,,,41.574097,-19.871521,-7.58667,,,,,,,,,,,,,,,
4331566419985,,,,,,,1.6265411,5.905472,-0.22097778,,,,,,,,,,,,,,,,,,,,,
4331568861392,,,,14.957474,-9.955877,-16.710464,,,,,,,,,,,,,,,,,,,,,,,,
4331566419985,,,,,,,,,,,,,,,,,,,,,,,1024.377,,,,,,,
4331568861392,,,,,,,,,,260.24603,-111.24265,-24.867687,,,,,,,,,,,,,,,,,,
4331586561587,9.940842,-2.6871796,-19.524445,,,,,,,,,,,,,,,,,,,,,,,,,,,
4331586561587,,,,,,,,,,,,,41.12549,-19.41986,5.19104,,,,,,,,,,,,,,,
4331586561587,,,,,,,-0.96777344,3.022049,-0.6548004,,,,,,,,,,,,,,,,,,,,,
4331588636782,,,,13.070131,-9.788776,-16.250275,,,,,,,,,,,,,,,,,,,,,,,,
4331588636782,,,,,,,,,,257.7871,-114.741165,-22.842522,,,,,,,,,,,,,,,,,,
4331606703189,6.4105377,-4.477768,-16.34999,,,,,,,,,,,,,,,,,,,,,,,,,,,
4331606703189,,,,,,,,,,,,,40.919495,-19.828796,11.933899,,,,,,,,,,,,,,,
4331606703189,,,,,,,-4.7945404,0.79803467,-1.2293243,,,,,,,,,,,,,,,,,,,,,
4331608412173,,,,9.340538,-11.76465,-12.987467,,,,,,,,,,,,,,,,,,,,,,,,
4331608412173,,,,,,,,,,257.34393,-113.28025,-22.745277,,,,,,,,,,,,,,,,,,
4331626844790,4.060852,-6.4750977,-5.868225,,,,,,,,,,,,,,,,,,,,,,,,,,,
4331626844790,,,,,,,-7.417282,-1.6335297,-1.2389526,,,,,,,,,,,,,,,,,,,,,
4331626844790,,,,,,,,,,,,,40.90576,-19.871521,12.42981,,,,,,,,,,,,,,,
4331599989321,,,,,,,,,,,,,,,,,,,,,,,1024.377,,,,,,,
4331628218081,,,,7.2889338,-13.841213,-2.966931,,,,,,,,,,,,,,,,,,,,,,,,
4331628218081,,,,,,,,,,258.25986,-106.507126,-24.139996,,,,,,,,,,,,,,,,,,
4331646986392,3.6157837,-5.5065765,0.82522583,,,,,,,,,,,,,,,,,,,,,,,,,,,
4331646986392,,,,,,,,,,,,,39.637756,-20.19043,13.987732,,,,,,,,,,,,,,,
4331647993472,,,,7.0987387,-12.738256,1.9145253,,,,,,,,,,,,,,,,,,,,,,,,
4331646986392,,,,,,,-8.010452,-4.493515,-0.6156006,,,,,,,,,,,,,,,,,,,,,
4331647993472,,,,,,,,,,262.075,-96.0349,-25.510853,,,,,,,,,,,,,,,,,,
4331633558657,,,,,,,,,,,,,,,,,,,,,,,1024.3751,,,,,,,
4331667127993,8.522705,-1.8786926,4.767685,,,,,,,,,,,,,,,,,,,,,,,,,,,
4331667127993,,,,,,,-7.4244995,-7.7256927,0.32237244,,,,,,,,,,,,,,,,,,,,,
4331667127993,,,,,,,,,,,,,41.18805,-19.555664,8.029175,,,,,,,,,,,,,,,
4331667738345,,,,12.012974,-8.995558,4.072202,,,,,,,,,,,,,,,,,,,,,,,,
4331667738345,,,,,,,,,,269.49182,-83.59977,-24.612925,,,,,,,,,,,,,,,,,,
4331687269595,14.608841,-1.3275757,5.188919,,,,,,,,,,,,,,,,,,,,,,,,,,,
4331687269595,,,,,,,,,,,,,41.23993,-19.534302,7.835388,,,,,,,,,,,,,,,
4331687269595,,,,,,,-6.8101044,-10.181931,0.33540344,,,,,,,,,,,,,,,,,,,,,
4331667127993,,,,,,,,,,,,,,,,,,,,,,,1024.367,,,,,,,
4331687513735,,,,17.429531,-8.312557,2.7942274,,,,,,,,,,,,,,,,,,,,,,,,
4331687513735,,,,,,,,,,279.45752,-71.062325,-20.3863,,,,,,,,,,,,,,,,,,
4331707289126,,,,16.669111,-12.404241,4.542446,,,,,,,,,,,,,,,,,,,,,,,,
4331707289126,,,,,,,,,,289.67798,-58.588055,-13.175646,,,,,,,,,,,,,,,,,,
4331700697329,,,,,,,,,,,,,,,,,,,,,,,1024.3715,,,,,,,
4331707411196,14.893478,-5.975296,8.554916,,,,,,,,,,,,,,,,,,,,,,,,,,,
4331727064517,,,,14.545057,-16.46465,14.099111,,,,,,,,,,,,,,,,,,,,,,,,
4331707411196,,,,,,,-7.754074,-12.508606,-0.33461,,,,,,,,,,,,,,,,,,,,,
4331707411196,,,,,,,,,,,,,42.36908,-22.375488,-4.5654297,,,,,,,,,,,,,,,
4331727064517,,,,,,,,,,298.4194,-46.021717,-1.9376278,,,,,,,,,,,,,,,,,,
4331727552798,14.374115,-10.880051,19.47496,,,,,,,,,,,,,,,,,,,,,,,,,,,
4331746900942,,,,16.013233,-14.824959,13.404875,,,,,,,,,,,,,,,,,,,,,,,,
4331727552798,,,,,,,,,,,,,36.064148,-19.366455,-20.219421,,,,,,,,,,,,,,,
4331727552798,,,,,,,-8.884399,-14.918381,0.21736145,,,,,,,,,,,,,,,,,,,,,
4331734266665,,,,,,,,,,,,,,,,,,,,,,,1024.377,,,,,,,
4331746900942,,,,,,,,,,305.36688,-36.436684,14.609178,,,,,,,,,,,,,,,,,,
4331747694399,18.042084,-9.945358,19.47496,,,,,,,,,,,,,,,,,,,,,,,,,,,
4331747694399,,,,,,,,,,,,,35.66742,-18.995667,-20.93811,,,,,,,,,,,,,,,
4331747694399,,,,,,,-7.666931,-17.104507,2.4007874,,,,,,,,,,,,,,,,,,,,,
4331766615298,,,,15.085943,-3.897631,13.864435,,,,,,,,,,,,,,,,,,,,,,,,
4331766615298,,,,,,,,,,311.04312,-31.616827,33.97974,,,,,,,,,,,,,,,,,,
4331767836001,,,,,,,,,,,,,,,,,,,,,,,1024.377,,,,,,,
4331767836001,19.526505,0.22929382,19.47496,,,,,,,,,,,,,,,,,,,,,,,,,,,
4331767836001,,,,,,,-5.831436,-16.699036,4.231903,,,,,,,,,,,,,,,,,,,,,
4331767836001,,,,,,,,,,,,,24.97406,-9.599304,-38.667297,,,,,,,,,,,,,,,
4331786390689,,,,13.232029,7.8519673,15.035597,,,,,,,,,,,,,,,,,,,,,,,,
4331786390689,,,,,,,,,,317.9482,-30.440432,50.71542,,,,,,,,,,,,,,,,,,
4331787977603,19.526505,10.493774,19.47496,,,,,,,,,,,,,,,,,,,,,,,,,,,
4331787977603,,,,,,,,,,,,,6.17218,-1.7089844,-47.29004,,,,,,,,,,,,,,,
4331787977603,,,,,,,-4.3937073,-12.161194,2.3430023,,,,,,,,,,,,,,,,,,,,,
4331801405337,,,,,,,,,,,,,,,,,,,,,,,1024.377,,,,,,,
4331806166079,,,,12.349063,8.55199,15.99637,,,,,,,,,,,,,,,,,,,,,,,,
4331806166079,,,,,,,,,,327.73056,-33.7071,59.77495,,,,,,,,,,,,,,,,,,
4331808119204,19.50238,9.8954315,19.47496,,,,,,,,,,,,,,,,,,,,,,,,,,,
4331808119204,,,,,,,-1.8065186,-5.835907,-1.9796143,,,,,,,,,,,,,,,,,,,,,
4331825971987,,,,11.91878,-1.7625597,16.364832,,,,,,,,,,,,,,,,,,,,,,,,
4331808119204,,,,,,,,,,,,,4.508972,-0.79803467,-47.1756,,,,,,,,,,,,,,,
4331825971987,,,,,,,,,,337.60065,-41.23029,60.679634,,,,,,,,,,,,,,,,,,
4331834974673,,,,,,,,,,,,,,,,,,,,,,,1024.377,,,,,,,
4331828260806,18.16011,0.5792694,17.873657,,,,,,,,,,,,,,,,,,,,,,,,,,,
4331845716860,,,,2.4283767,-5.8239565,2.8588789,,,,,,,,,,,,,,,,,,,,,,,,
4331828260806,,,,,,,1.0613251,-1.4422607,-4.918518,,,,,,,,,,,,,,,,,,,,,
4331828260806,,,,,,,,,,,,,-11.605835,7.713318,-45.664978,,,,,,,,,,,,,,,
4331845716860,,,,,,,,,,347.1658,-51.14301,58.11355,,,,,,,,,,,,,,,,,,
4331848402407,9.680145,-1.8748932,6.1292267,,,,,,,,,,,,,,,,,,,,,,,,,,,
4331848402407,,,,,,,,,,,,,-18.54248,9.05304,-42.03949,,,,,,,,,,,,,,,
4331848402407,,,,,,,1.4768219,-2.7281342,-5.097122,,,,,,,,,,,,,,,,,,,,,
4331865522769,,,,3.111301,-3.012704,6.9475865,,,,,,,,,,,,,,,,,,,,,,,,
4331865522769,,,,,,,,,,359.25504,-62.338184,56.39611,,,,,,,,,,,,,,,,,,
4331868544009,9.925476,1.2401276,10.436081,,,,,,,,,,,,,,,,,,,,,,,,,,,
4331868544009,,,,,,,,,,,,,-18.823242,8.306885,-42.063904,,,,,,,,,,,,,,,
4331868544009,,,,,,,0.628067,-6.54158,-3.9004974,,,,,,,,,,,,,,,,,,,,,
4331885298159,,,,1.5979934,-2.8722796,16.35588,,,,,,,,,,,,,,,,,,,,,,,,
4331885298159,,,,,,,,,,14.16745,-73.834984,55.17297,,,,,,,,,,,,,,,,,,
4331868544009,,,,,,,,,,,,,,,,,,,,,,,1024.377,,,,,,,
4331888685610,8.865051,2.0688171,17.44458,,,,,,,,,,,,,,,,,,,,,,,,,,,
4331905073550,,,,3.5230613,-1.6979446,15.543324,,,,,,,,,,,,,,,,,,,,,,,,
4331888685610,,,,,,,0.20155334,-6.8860474,-3.5385284,,,,,,,,,,,,,,,,,,,,,
4331888685610,,,,,,,,,,,,,-21.524048,3.5995483,-41.358948,,,,,,,,,,,,,,,
4331905073550,,,,,,,,,,26.532806,-82.94817,52.619957,,,,,,,,,,,,,,,,,,
4331908827212,9.954208,3.6317596,15.4015045,,,,,,,,,,,,,,,,,,,,,,,,,,,
4331908827212,,,,,,,0.8681183,-4.541443,-3.6767273,,,,,,,,,,,,,,,,,,,,,
4331924848940,,,,2.1231337,-1.1628551,11.976819,,,,,,,,,,,,,,,,,,,,,,,,
4331908827212,,,,,,,,,,,,,-27.059937,0.81329346,-37.2818,,,,,,,,,,,,,,,
4331902113345,,,,,,,,,,,,,,,,,,,,,,,1024.377,,,,,,,
4331924848940,,,,,,,,,,34.057037,-88.88793,48.575943,,,,,,,,,,,,,,,,,,
4331928968814,8.021576,4.186371,11.506088,,,,,,,,,,,,,,,,,,,,,,,,,,,
4331928968814,,,,,,,,,,,,,-28.277588,0.076293945,-36.08551,,,,,,,,,,,,,,,
4331928968814,,,,,,,1.6174622,-2.969574,-4.313629,,,,,,,,,,,,,,,,,,,,,
4331944624331,,,,0.28306246,-3.067748,9.653405,,,,,,,,,,,,,,,,,,,,,,,,
4331944624331,,,,,,,,,,38.453186,-93.276276,43.569744,,,,,,,,,,,,,,,,,,
4331935682681,,,,,,,,,,,,,,,,,,,,,,,1024.377,,,,,,,
4331949110415,5.3810425,3.2770233,8.388412,,,,,,,,,,,,,,,,,,,,,,,,,,,
4331949110415,,,,,,,2.1766968,-2.4889526,-4.687729,,,,,,,,,,,,,,,,,,,,,
4331949110415,,,,,,,,,,,,,-33.132935,-4.248047,-30.34668,,,,,,,,,,,,,,,
4331964369204,,,,-2.4174643,-2.6948385,6.1449933,,,,,,,,,,,,,,,,,,,,,,,,
4331964369204,,,,,,,,,,41.792572,-97.40765,37.886013,,,,,,,,,,,,,,,,,,
4331969252017,1.7977142,3.4590302,5.4879913,,,,,,,,,,,,,,,,,,,,,,,,,,,
4331969252017,,,,,,,,,,,,,-33.906555,-9.44519,-26.289368,,,,,,,,,,,,,,,
4331969252017,,,,,,,2.3342285,-2.4375916,-4.714279,,,,,,,,,,,,,,,,,,,,,
4331984175112,,,,-5.691765,-4.9784775,7.4282937,,,,,,,,,,,,,,,,,,,,,,,,
4331969252017,,,,,,,,,,,,,,,,,,,,,,,1024.377,,,,,,,
4331984175112,,,,,,,,,,44.516724,-100.65438,32.197033,,,,,,,,,,,,,,,,,,
4331989393618,-1.2405853,2.5589142,6.118973,,,,,,,,,,,,,,,,,,,,,,,,,,,
4331989393618,,,,,,,,,,,,,-34.303284,-11.088562,-25.811768,,,,,,,,,,,,,,,
4331989393618,,,,,,,1.8056335,-2.0190735,-4.0266724,,,,,,,,,,,,,,,,,,,,,
4332003950503,,,,,,,,,,46.56189,-102.8953,27.33501,,,,,,,,,,,,,,,,,,
4332003950503,,,,-5.143529,-3.132276,7.787766,,,,,,,,,,,,,,,,,,,,,,,,
4332002821353,,,,,,,,,,,,,,,,,,,,,,,1024.377,,,,,,,
4332009535220,-1.1143951,4.418274,6.4314423,,,,,,,,,,,,,,,,,,,,,,,,,,,
4332009535220,,,,,,,1.8188629,-1.3690796,-3.2419434,,,,,,,,,,,,,,,,,,,,,
4332009535220,,,,,,,,,,,,,-34.60846,-18.09082,-23.324585,,,,,,,,,,,,,,,
4332023725894,,,,-3.9161954,-2.1298962,9.122776,,,,,,,,,,,,,,,,,,,,,,,,
4332023725894,,,,,,,,,,47.805115,-104.69946,23.426882,,,,,,,,,,,,,,,,,,
4332029676821,-0.7810669,5.2668457,7.236435,,,,,,,,,,,,,,,,,,,,,,,,,,,
4332029676821,,,,,,,,,,,,,-32.569885,-24.243164,-20.38269,,,,,,,,,,,,,,,
4332029676821,,,,,,,2.0670013,-0.5354767,-2.7634888,,,,,,,,,,,,,,,,,,,,,
4332036390689,,,,,,,,,,,,,,,,,,,,,,,1024.3694,,,,,,,
4332043501284,,,,-4.020444,-2.0944014,9.540201,,,,,,,,,,,,,,,,,,,,,,,,
4332043501284,,,,,,,,,,48.114502,-106.46731,20.233727,,,,,,,,,,,,,,,,,,
4332049818423,-1.6369171,5.1592865,7.126358,,,,,,,,,,,,,,,,,,,,,,,,,,,
4332049818423,,,,,,,,,,,,,-32.037354,-24.88861,-19.543457,,,,,,,,,,,,,,,
4332049818423,,,,,,,2.5155334,0.22467041,-2.4207306,,,,,,,,,,,,,,,,,,,,,
4332063276675,,,,-5.121607,-2.6206656,9.155335,,,,,,,,,,,,,,,,,,,,,,,,
4332063276675,,,,,,,,,,47.723663,-108.60358,17.60312,,,,,,,,,,,,,,,,,,
4332069960024,,,,,,,,,,,,,,,,,,,,,,,1024.367,,,,,,,
4332069960024,-3.1472778,4.424942,6.339966,,,,,,,,,,,,,,,,,,,,,,,,,,,
4332069960024,,,,,,,3.0062714,0.8883362,-2.0820007,,,,,,,,,,,,,,,,,,,,,
4332069960024,,,,,,,,,,,,,-30.223083,-27.856445,-16.53595,,,,,,,,,,,,,,,
4332083021548,,,,-6.32854,-3.5942369,8.542838,,,,,,,,,,,,,,,,,,,,,,,,
4332083021548,,,,,,,,,,46.655945,-111.17415,15.626514,,,,,,,,,,,,,,,,,,
4332090101626,-3.9098358,3.5079956,4.2949066,,,,,,,,,,,,,,,,,,,,,,,,,,,
4332090101626,,,,,,,,,,,,,-28.897095,-30.970764,-14.147949,,,,,,,,,,,,,,,
4332090101626,,,,,,,3.225998,1.8944702,-1.6801147,,,,,,,,,,,,,,,,,,,,,
4332102827456,,,,-5.5495877,-4.0128074,4.921773,,,,,,,,,,,,,,,,,,,,,,,,
4332102827456,,,,,,,,,,44.218597,-113.93597,14.662847,,,,,,,,,,,,,,,,,,
4332110243228,-3.7716827,2.6498413,0.69680786,,,,,,,,,,,,,,,,,,,,,,,,,,,
4332110243228,,,,,,,,,,,,,-27.581787,-32.548523,-14.332581,,,,,,,,,,,,,,,
4332122602847,,,,-6.2680264,-5.1325936,2.3627453,,,,,,,,,,,,,,,,,,,,,,,,
4332110243228,,,,,,,2.916916,3.246292,-1.3441315,,,,,,,,,,,,,,,,,,,,,
4332122602847,,,,,,,,,,40.358734,-116.120674,14.779561,,,,,,,,,,,,,,,,,,
4332103529360,,,,,,,,,,,,,,,,,,,,,,,1024.367,,,,,,,
4332130384829,-4.744034,1.7191315,-0.934906,,,,,,,,,,,,,,,,,,,,,,,,,,,
4332142378237,,,,-7.7368755,-5.303958,2.713132,,,,,,,,,,,,,,,,,,,,,,,,
4332130384829,,,,,,,2.0096436,4.612152,-1.0572052,,,,,,,,,,,,,,,,,,,,,
4332130384829,,,,,,,,,,,,,-24.337769,-35.043335,-13.993835,,,,,,,,,,,,,,,
4332142378237,,,,,,,,,,35.293945,-116.85023,15.907324,,,,,,,,,,,,,,,,,,
4332150526431,-5.901657,1.3705444,-0.9359894,,,,,,,,,,,,,,,,,,,,,,,,,,,
4332150526431,,,,,,,,,,,,,-22.717285,-34.83734,-13.000488,,,,,,,,,,,,,,,
4332162153628,,,,-8.857243,-5.6183333,2.0866835,,,,,,,,,,,,,,,,,,,,,,,,
4332150526431,,,,,,,0.978714,5.9474945,-0.5947571,,,,,,,,,,,,,,,,,,,,,
4332137098696,,,,,,,,,,,,,,,,,,,,,,,1024.367,,,,,,,
4332162153628,,,,,,,,,,29.090729,-115.96776,18.110132,,,,,,,,,,,,,,,,,,
4332170668032,-6.2656555,1.0619965,-0.56585693,,,,,,,,,,,,,,,,,,,,,,,,,,,
4332170668032,,,,,,,,,,,,,-22.286987,-35.99701,-13.847351,,,,,,,,,,,,,,,
4332170668032,,,,,,,0.23640442,6.8470917,0.18095398,,,,,,,,,,,,,,,,,,,,,
4332181929019,,,,-8.936546,-5.723993,3.2012818,,,,,,,,,,,,,,,,,,,,,,,,
4332181929019,,,,,,,,,,22.225891,-113.61807,21.320093,,,,,,,,,,,,,,,,,,
4332170668032,,,,,,,,,,,,,,,,,,,,,,,1024.367,,,,,,,
4332190809634,-4.5487976,1.2730408,2.85878,,,,,,,,,,,,,,,,,,,,,,,,,,,
4332201704409,,,,-5.9996624,-4.949417,8.378725,,,,,,,,,,,,,,,,,,,,,,,,
4332190809634,,,,,,,-0.37957764,7.1586914,1.1671906,,,,,,,,,,,,,,,,,,,,,
4332190809634,,,,,,,,,,,,,-20.66803,-37.83264,-16.14685,,,,,,,,,,,,,,,
4332201704409,,,,,,,,,,14.652771,-109.61321,25.4732,,,,,,,,,,,,,,,,,,
4332210951235,0.047668457,1.9505463,7.192337,,,,,,,,,,,,,,,,,,,,,,,,,,,
4332210951235,,,,,,,,,,,,,-19.378662,-38.201904,-17.593384,,,,,,,,,,,,,,,
4332221479800,,,,-0.7725353,-4.1781163,10.110415,,,,,,,,,,,,,,,,,,,,,,,,
4332210951235,,,,,,,-0.81329346,7.790268,2.043335,,,,,,,,,,,,,,,,,,,,,
4332204237368,,,,,,,,,,,,,,,,,,,,,,,1024.367,,,,,,,
4332221479800,,,,,,,,,,5.1523743,-103.81223,30.377377,,,,,,,,,,,,,,,,,,
4332231092837,7.124237,3.311798,10.669235,,,,,,,,,,,,,,,,,,,,,,,,,,,
4332241255190,,,,6.884968,-1.8886175,13.551598,,,,,,,,,,,,,,,,,,,,,,,,
4332231092837,,,,,,,-1.1071014,8.644943,2.5428925,,,,,,,,,,,,,,,,,,,,,
4332231092837,,,,,,,,,,,,,-18.32428,-37.794495,-20.544434,,,,,,,,,,,,,,,
4332241255190,,,,,,,,,,352.5357,-95.55321,35.252007,,,,,,,,,,,,,,,,,,
4332237806704,,,,,,,,,,,,,,,,,,,,,,,1024.367,,,,,,,
4332251234439,15.480316,7.8675537,14.959549,,,,,,,,,,,,,,,,,,,,,,,,,,,
4332251234439,,,,,,,-1.3699188,9.033096,2.4685974,,,,,,,,,,,,,,,,,,,,,
4332251234439,,,,,,,,,,,,,-15.77301,-36.25641,-25.405884,,,,,,,,,,,,,,,
4332261000064,,,,14.653187,5.158687,16.409388,,,,,,,,,,,,,,,,,,,,,,,,
4332261000064,,,,,,,,,,337.42905,-85.08147,38.477345,,,,,,,,,,,,,,,,,,
4332271376040,19.526505,12.90004,17.800552,,,,,,,,,,,,,,,,,,,,,,,,,,,
4332271376040,,,,,,,,,,,,,-14.367676,-35.17456,-27.11029,,,,,,,,,,,,,,,
4332271376040,,,,,,,-0.78497314,8.7091675,1.220993,,,,,,,,,,,,,,,,,,,,,
4332280805972,,,,14.576736,8.347249,16.986048,,,,,,,,,,,,,,,,,,,,,,,,
4332280805972,,,,,,,,,,322.49252,-75.14533,38.399986,,,,,,,,,,,,,,,,,,
4332271376040,,,,,,,,,,,,,,,,,,,,,,,1024.367,,,,,,,
4332291517642,19.526505,12.755142,16.663391,,,,,,,,,,,,,,,,,,,,,,,,,,,
4332291517642,,,,,,,,,,,,,-11.021423,-34.355164,-30.752563,,,,,,,,,,,,,,,
4332291517642,,,,,,,0.5309143,8.127716,-0.5806427,,,,,,,,,,,,,,,,,,,,,
4332300581362,,,,14.841834,5.238053,12.636061,,,,,,,,,,,,,,,,,,,,,,,,
4332300581362,,,,,,,,,,309.76672,-68.65171,35.40235,,,,,,,,,,,,,,,,,,
4332304945376,,,,,,,,,,,,,,,,,,,,,,,1024.367,,,,,,,
4332311659243,17.783997,11.6883545,15.989136,,,,,,,,,,,,,,,,,,,,,,,,,,,
4332311659243,,,,,,,1.3105011,7.609894,-1.4949951,,,,,,,,,,,,,,,,,,,,,
4332311659243,,,,,,,,,,,,,-4.161072,-33.944702,-33.558655,,,,,,,,,,,,,,,
4332320326235,,,,12.2165785,5.5597277,13.745949,,,,,,,,,,,,,,,,,,,,,,,,
4332320326235,,,,,,,,,,299.1758,-64.86828,30.850554,,,,,,,,,,,,,,,,,,
4332331800845,16.45932,12.646149,16.755844,,,,,,,,,,,,,,,,,,,,,,,,,,,
4332331800845,,,,,,,1.7822876,7.1214905,-1.8072662,,,,,,,,,,,,,,,,,,,,,
4332340132144,,,,12.849503,6.5028358,13.37784,,,,,,,,,,,,,,,,,,,,,,,,
4332331800845,,,,,,,,,,,,,-1.008606,-34.165955,-33.343506,,,,,,,,,,,,,,,
4332338514712,,,,,,,,,,,,,,,,,,,,,,,1024.367,,,,,,,
4332340132144,,,,,,,,,,290.1534,-63.00985,25.946941,,,,,,,,,,,,,,,,,,
4332351942446,14.906555,12.445511,16.175217,,,,,,,,,,,,,,,,,,,,,,,,,,,
4332351942446,,,,,,,,,,,,,3.2791138,-34.46808,-32.266235,,,,,,,,,,,,,,,
4332351942446,,,,,,,2.3334198,6.843796,-2.424408,,,,,,,,,,,,,,,,,,,,,
4332359907534,,,,10.885097,4.9556065,12.184234,,,,,,,,,,,,,,,,,,,,,,,,
4332359907534,,,,,,,,,,282.49353,-62.869354,20.579958,,,,,,,,,,,,,,,,,,
4332372084048,12.055374,10.675919,15.090897,,,,,,,,,,,,,,,,,,,,,,,,,,,
4332372084048,,,,,,,,,,,,,11.4227295,-36.01837,-28.401184,,,,,,,,,,,,,,,
4332372084048,,,,,,,2.8111115,7.0964813,-3.34404,,,,,,,,,,,,,,,,,,,,,
4332379652407,,,,8.847511,2.4961066,11.079841,,,,,,,,,,,,,,,,,,,,,,,,
4332379652407,,,,,,,,,,275.42792,-64.084076,14.34246,,,,,,,,,,,,,,,,,,
4332392225649,9.335037,7.0820313,11.840881,,,,,,,,,,,,,,,,,,,,,,,,,,,
4332392225649,,,,,,,,,,,,,14.68811,-36.85608,-26.452637,,,,,,,,,,,,,,,
4332399458315,,,,7.358451,-2.2534714,6.8806725,,,,,,,,,,,,,,,,,,,,,,,,
4332392225649,,,,,,,3.3266907,7.8986206,-4.2249603,,,,,,,,,,,,,,,,,,,,,
4332372084048,,,,,,,,,,,,,,,,,,,,,,,1024.367,,,,,,,
4332399458315,,,,,,,,,,268.26837,-66.65793,7.111052,,,,,,,,,,,,,,,,,,
4332412367251,7.589508,3.239441,4.7831116,,,,,,,,,,,,,,,,,,,,,,,,,,,
4332412367251,,,,,,,,,,,,,19.265747,-38.172913,-24.09668,,,,,,,,,,,,,,,
4332419233706,,,,7.2380147,-5.9218545,-0.87416077,,,,,,,,,,,,,,,,,,,,,,,,
4332412367251,,,,,,,3.746338,8.610992,-4.713623,,,,,,,,,,,,,,,,,,,,,
4332419233706,,,,,,,,,,261.12067,-70.8558,-0.57083225,,,,,,,,,,,,,,,,,,
4332405653384,,,,,,,,,,,,,,,,,,,,,,,1024.367,,,,,,,
4332432508853,6.382126,0.390625,-1.3774261,,,,,,,,,,,,,,,,,,,,,,,,,,,
4332432508853,,,,,,,3.58461,8.717468,-4.843918,,,,,,,,,,,,,,,,,,,,,
4332432508853,,,,,,,,,,,,,28.54004,-37.63275,-15.24353,,,,,,,,,,,,,,,
4332439009097,,,,7.1635504,-8.471374,-4.954782,,,,,,,,,,,,,,,,,,,,,,,,
4332439009097,,,,,,,,,,253.55707,-76.20897,-7.9629726,,,,,,,,,,,,,,,,,,
4332452650454,7.197754,-0.24690247,-6.007202,,,,,,,,,,,,,,,,,,,,,,,,,,,
4332458815005,,,,9.811523,-8.120819,-8.460939,,,,,,,,,,,,,,,,,,,,,,,,
4332452650454,,,,,,,,,,,,,31.889343,-37.023926,-11.5234375,,,,,,,,,,,,,,,
4332452650454,,,,,,,3.0036926,8.330688,-4.811615,,,,,,,,,,,,,,,,,,,,,
4332458815005,,,,,,,,,,245.83731,-82.22926,-14.489967,,,,,,,,,,,,,,,,,,
4332439222720,,,,,,,,,,,,,,,,,,,,,,,1024.367,,,,,,,
4332472792056,7.93396,-1.3739166,-8.780441,,,,,,,,,,,,,,,,,,,,,,,,,,,
4332478590396,,,,10.870306,-9.5606785,-9.569846,,,,,,,,,,,,,,,,,,,,,,,,
4332478590396,,,,,,,,,,238.57631,-88.46024,-20.368086,,,,,,,,,,,,,,,,,,
4332472792056,,,,,,,,,,,,,36.01837,-33.815002,-3.5217285,,,,,,,,,,,,,,,
4332472792056,,,,,,,2.410324,7.1650085,-5.1560516,,,,,,,,,,,,,,,,,,,,,
4332472792056,,,,,,,,,,,,,,,,,,,,,,,1024.367,,,,,,,
4332492933657,5.5795593,-3.3988342,-9.383942,,,,,,,,,,,,,,,,,,,,,,,,,,,
4332492933657,,,,,,,1.4131165,6.106064,-5.571045,,,,,,,,,,,,,,,,,,,,,
4332498365786,,,,8.238896,-11.234943,-8.839956,,,,,,,,,,,,,,,,,,,,,,,,
4332492933657,,,,,,,,,,,,,39.308167,-28.215027,8.0078125,,,,,,,,,,,,,,,
4332498365786,,,,,,,,,,231.41818,-94.34754,-26.19955,,,,,,,,,,,,,,,,,,
4332513075259,2.8420868,-4.365738,-8.915512,,,,,,,,,,,,,,,,,,,,,,,,,,,
4332513075259,,,,,,,,,,,,,39.904785,-26.597595,11.117554,,,,,,,,,,,,,,,
4332513075259,,,,,,,0.4615326,4.9381256,-5.472183,,,,,,,,,,,,,,,,,,,,,
4332518141177,,,,6.4378014,-11.240353,-7.6111803,,,,,,,,,,,,,,,,,,,,,,,,
4332518141177,,,,,,,,,,224.22606,-99.60195,-31.691612,,,,,,,,,,,,,,,,,,
4332506361392,,,,,,,,,,,,,,,,,,,,,,,1024.367,,,,,,,
4332533216860,0.97036743,-4.9118347,-7.069275,,,,,,,,,,,,,,,,,,,,,,,,,,,
4332533216860,,,,,,,0.06347656,3.0999146,-5.1350555,,,,,,,,,,,,,,,,,,,,,
4332533216860,,,,,,,,,,,,,38.885498,-21.72699,15.119934,,,,,,,,,,,,,,,
4332537916567,,,,5.344601,-11.231443,-5.00834,,,,,,,,,,,,,,,,,,,,,,,,
4332537916567,,,,,,,,,,218.08199,-103.93809,-36.746716,,,,,,,,,,,,,,,,,,
4332539930728,,,,,,,,,,,,,,,,,,,,,,,1024.367,,,,,,,
4332553358462,-1.1468964,-5.3952637,-4.767929,,,,,,,,,,,,,,,,,,,,,,,,,,,
4332553358462,,,,,,,0.086868286,1.0215454,-4.6409454,,,,,,,,,,,,,,,,,,,,,
4332553358462,,,,,,,,,,,,,37.78534,-13.117981,21.235657,,,,,,,,,,,,,,,
4332557691958,,,,3.6195092,-11.132505,-2.5416636,,,,,,,,,,,,,,,,,,,,,,,,
4332557691958,,,,,,,,,,213.82368,-107.037025,-41.689426,,,,,,,,,,,,,,,,,,
4332573500064,-2.3855438,-5.4872894,-2.566208,,,,,,,,,,,,,,,,,,,,,,,,,,,
4332573500064,,,,,,,,,,,,,37.56714,-11.126709,22.601318,,,,,,,,,,,,,,,
4332573500064,,,,,,,0.2286377,-0.7138214,-4.115082,,,,,,,,,,,,,,,,,,,,,
4332573500064,,,,,,,,,,,,,,,,,,,,,,,1024.367,,,,,,,
4332577467349,,,,3.1209779,-10.584156,-0.415959,,,,,,,,,,,,,,,,,,,,,,,,
4332577467349,,,,,,,,,,211.80374,-108.6698,-46.621727,,,,,,,,,,,,,,,,,,
4332593641665,-2.7907562,-4.689102,-1.1400604,,,,,,,,,,,,,,,,,,,,,,,,,,,
4332593641665,,,,,,,,,,,,,36.473083,-8.377075,23.944092,,,,,,,,,,,,,,,
4332597242739,,,,3.264,-9.086625,0.63513935,,,,,,,,,,,,,,,,,,,,,,,,
4332593641665,,,,,,,0.35211182,-1.9841766,-3.8250732,,,,,,,,,,,,,,,,,,,,,
4332597242739,,,,,,,,,,212.01941,-108.748566,-51.633987,,,,,,,,,,,,,,,,,,
4332607069399,,,,,,,,,,,,,,,,,,,,,,,1024.367,,,,,,,
4332613783267,-3.3167114,-4.460037,1.3341064,,,,,,,,,,,,,,,,,,,,,,,,,,,
4332613783267,,,,,,,0.30770874,-2.8286438,-3.9219208,,,,,,,,,,,,,,,,,,,,,
4332613783267,,,,,,,,,,,,,36.64856,-1.7166138,24.380493,,,,,,,,,,,,,,,
4332617018130,,,,3.0763826,-8.4798155,3.0054207,,,,,,,,,,,,,,,,,,,,,,,,
4332617018130,,,,,,,,,,214.11354,-106.98482,-56.991955,,,,,,,,,,,,,,,,,,
4332633924868,-6.1717377,-5.361618,5.313507,,,,,,,,,,,,,,,,,,,,,,,,,,,
4332633924868,,,,,,,0.3232727,-3.0493164,-4.215637,,,,,,,,,,,,,,,,,,,,,
4332633924868,,,,,,,,,,,,,36.730957,-0.53253174,24.406433,,,,,,,,,,,,,,,
4332636793521,,,,,,,,,,217.77132,-103.19206,-62.825264,,,,,,,,,,,,,,,,,,
4332636793521,,,,0.2127223,-8.941634,6.7168875,,,,,,,,,,,,,,,,,,,,,,,,
4332654066470,-9.727814,-4.857239,7.778961,,,,,,,,,,,,,,,,,,,,,,,,,,,
4332654066470,,,,,,,,,,,,,38.189697,2.9922485,20.680237,,,,,,,,,,,,,,,
4332656568911,,,,-3.003787,-7.5411825,8.433662,,,,,,,,,,,,,,,,,,,,,,,,
4332656568911,,,,,,,,,,222.81781,-97.87578,-68.63131,,,,,,,,,,,,,,,,,,
4332654066470,,,,,,,0.5902252,-2.5516968,-4.2720795,,,,,,,,,,,,,,,,,,,,,
4332640638735,,,,,,,,,,,,,,,,,,,,,,,1024.367,,,,,,,
4332674208071,-12.224075,-4.445389,9.025864,,,,,,,,,,,,,,,,,,,,,,,,,,,
4332674208071,,,,,,,1.0512238,-1.7140808,-4.2117767,,,,,,,,,,,,,,,,,,,,,
4332674208071,,,,,,,,,,,,,39.44397,8.752441,16.482544,,,,,,,,,,,,,,,
4332676344302,,,,-5.050119,-6.527814,9.207729,,,,,,,,,,,,,,,,,,,,,,,,
4332676344302,,,,,,,,,,229.04622,-91.717186,-74.04672,,,,,,,,,,,,,,,,,,
4332694349673,-13.352158,-5.065933,7.765747,,,,,,,,,,,,,,,,,,,,,,,,,,,
4332694349673,,,,,,,,,,,,,39.570618,9.388733,16.038513,,,,,,,,,,,,,,,
4332696119692,,,,-5.8318152,-6.5980654,7.493482,,,,,,,,,,,,,,,,,,,,,,,,
4332694349673,,,,,,,1.6927643,-1.0468903,-4.0282593,,,,,,,,,,,,,,,,,,,,,
4332674208071,,,,,,,,,,,,,,,,,,,,,,,1024.3696,,,,,,,
4332696119692,,,,,,,,,,236.94806,-84.67572,-79.035484,,,,,,,,,,,,,,,,,,
4332714491274,-14.002563,-5.486725,7.152588,,,,,,,,,,,,,,,,,,,,,,,,,,,
4332715895083,,,,,,,,,,252.65111,-70.48102,-83.36966,,,,,,,,,,,,,,,,,,
4332715895083,,,,-6.3129315,-6.361131,6.815748,,,,,,,,,,,,,,,,,,,,,,,,
4332714491274,,,,,,,,,,,,,37.088013,14.387512,14.515686,,,,,,,,,,,,,,,
4332714491274,,,,,,,2.1576385,-1.0449677,-3.736084,,,,,,,,,,,,,,,,,,,,,
4332707777407,,,,,,,,,,,,,,,,,,,,,,,1024.377,,,,,,,
4332734632876,-15.9831085,-5.637985,7.731827,,,,,,,,,,,,,,,,,,,,,,,,,,,
4332734632876,,,,,,,2.2899323,-1.3547821,-3.2343445,,,,,,,,,,,,,,,,,,,,,
4332734632876,,,,,,,,,,,,,34.365845,21.463013,10.668945,,,,,,,,,,,,,,,
4332735670474,,,,-8.275185,-5.9370646,7.2486534,,,,,,,,,,,,,,,,,,,,,,,,
4332735670474,,,,,,,,,,295.56348,-29.463156,-85.65287,,,,,,,,,,,,,,,,,,
4332754774478,-15.370636,-4.0535736,10.824326,,,,,,,,,,,,,,,,,,,,,,,,,,,
4332754774478,,,,,,,,,,,,,34.22699,21.833801,10.461426,,,,,,,,,,,,,,,
4332754774478,,,,,,,2.4740448,-1.5316467,-2.5525055,,,,,,,,,,,,,,,,,,,,,
4332755445864,,,,-7.49786,-3.8469677,10.120462,,,,,,,,,,,,,,,,,,,,,,,,
4332741346743,,,,,,,,,,,,,,,,,,,,,,,1024.3717,,,,,,,
4332755445864,,,,,,,,,,337.63495,10.519996,-83.99701,,,,,,,,,,,,,,,,,,
4332774916079,-12.249435,-3.7890625,11.131027,,,,,,,,,,,,,,,,,,,,,,,,,,,
4332774916079,,,,,,,,,,,,,30.7724,26.965332,8.03833,,,,,,,,,,,,,,,
4332775221255,,,,-4.3707585,-3.308426,9.992512,,,,,,,,,,,,,,,,,,,,,,,,
4332774916079,,,,,,,3.184906,-1.5877533,-2.0257416,,,,,,,,,,,,,,,,,,,,,
4332775221255,,,,,,,,,,352.3889,22.691572,-81.019684,,,,,,,,,,,,,,,,,,
4332774916079,,,,,,,,,,,,,,,,,,,,,,,1024.367,,,,,,,
4332794996646,,,,-0.41973734,-3.6164536,8.823334,,,,,,,,,,,,,,,,,,,,,,,,
4332794996646,,,,,,,,,,359.21136,26.0667,-77.98695,,,,,,,,,,,,,,,,,,
4332795057681,-8.18306,-4.3489075,10.309128,,,,,,,,,,,,,,,,,,,,,,,,,,,
4332808485415,,,,,,,,,,,,,,,,,,,,,,,1024.367,,,,,,,
4332814772036,,,,0.9494114,-5.3467135,8.789356,,,,,,,,,,,,,,,,,,,,,,,,
4332814772036,,,,,,,,,,5.246765,28.07376,-74.83643,,,,,,,,,,,,,,,,,,
4332795057681,,,,,,,3.8464966,-1.4919739,-1.9692535,,,,,,,,,,,,,,,,,,,,,
4332795057681,,,,,,,,,,,,,28.715515,29.736328,5.3741455,,,,,,,,,,,,,,,
4332834547427,,,,-3.5473208,-7.1372547,6.419633,,,,,,,,,,,,,,,,,,,,,,,,
4332815199282,-6.8211517,-6.3707733,10.580658,,,,,,,,,,,,,,,,,,,,,,,,,,,
4332815199282,,,,,,,4.213028,-1.3446045,-2.500946,,,,,,,,,,,,,,,,,,,,,
4332815199282,,,,,,,,,,,,,28.736877,29.808044,5.3253174,,,,,,,,,,,,,,,
4332834547427,,,,,,,,,,12.499115,30.586319,-71.67357,,,,,,,,,,,,,,,,,,
4332842054751,,,,,,,,,,,,,,,,,,,,,,,1024.367,,,,,,,
4332835340884,-11.271881,-8.45639,8.459305,,,,,,,,,,,,,,,,,,,,,,,,,,,
4332854322817,,,,-7.129695,-7.882163,3.0128868,,,,,,,,,,,,,,,,,,,,,,,,
4332854322817,,,,,,,,,,19.154266,31.78429,-68.54538,,,,,,,,,,,,,,,,,,
4332835340884,,,,,,,4.4702454,-1.0038605,-3.0312195,,,,,,,,,,,,,,,,,,,,,
4332835340884,,,,,,,,,,,,,29.623413,33.10089,2.7755737,,,,,,,,,,,,,,,
4332855482485,-14.501099,-9.395874,5.721512,,,,,,,,,,,,,,,,,,,,,,,,,,,
4332855482485,,,,,,,,,,,,,27.380371,33.10089,-4.4692993,,,,,,,,,,,,,,,
4332855482485,,,,,,,4.601532,-1.4950714,-2.5739746,,,,,,,,,,,,,,,,,,,,,
4332874098208,,,,-5.313825,-7.1546526,6.036358,,,,,,,,,,,,,,,,,,,,,,,,
4332874098208,,,,,,,,,,21.447937,28.849104,-64.83757,,,,,,,,,,,,,,,,,,
4332875624087,-12.283142,-8.761887,9.516861,,,,,,,,,,,,,,,,,,,,,,,,,,,
4332875624087,,,,,,,,,,,,,27.108765,33.242798,-4.911804,,,,,,,,,,,,,,,
4332875624087,,,,,,,4.6958923,-3.0845337,-1.459137,,,,,,,,,,,,,,,,,,,,,
4332893873599,,,,-0.9611602,-6.535514,11.318015,,,,,,,,,,,,,,,,,,,,,,,,
4332893873599,,,,,,,,,,20.206268,22.815445,-59.855236,,,,,,,,,,,,,,,,,,
4332875624087,,,,,,,,,,,,,,,,,,,,,,,1024.3674,,,,,,,
4332895765689,-8.383255,-8.40329,15.19989,,,,,,,,,,,,,,,,,,,,,,,,,,,
4332895765689,,,,,,,5.2763824,-4.324707,-1.2099304,,,,,,,,,,,,,,,,,,,,,
4332895765689,,,,,,,,,,,,,23.712158,34.8526,-10.870361,,,,,,,,,,,,,,,
4332913648989,,,,-5.344795,-9.630207,11.705312,,,,,,,,,,,,,,,,,,,,,,,,
4332913648989,,,,,,,,,,20.870789,17.54669,-54.250683,,,,,,,,,,,,,,,,,,
4332915907290,-12.769394,-11.3671875,16.01793,,,,,,,,,,,,,,,,,,,,,,,,,,,
4332915907290,,,,,,,5.7810974,-3.913971,-2.1489258,,,,,,,,,,,,,,,,,,,,,
4332915907290,,,,,,,,,,,,,22.203064,33.94165,-17.10205,,,,,,,,,,,,,,,
4332909193423,,,,,,,,,,,,,,,,,,,,,,,1024.377,,,,,,,
4332933424380,,,,-12.338618,-12.341318,8.733488,,,,,,,,,,,,,,,,,,,,,,,,
4332933424380,,,,,,,,,,24.505066,13.685117,-49.473892,,,,,,,,,,,,,,,,,,
4332936048892,-18.517563,-13.548874,13.92691,,,,,,,,,,,,,,,,,,,,,,,,,,,
4332936048892,,,,,,,,,,,,,21.650696,33.740234,-18.251038,,,,,,,,,,,,,,,
4332936048892,,,,,,,5.775299,-3.1306763,-2.2062225,,,,,,,,,,,,,,,,,,,,,
4332953260806,,,,-11.6267805,-12.1121025,7.75445,,,,,,,,,,,,,,,,,,,,,,,,
4332953260806,,,,,,,,,,27.927856,9.525927,-45.392548,,,,,,,,,,,,,,,,,,
4332942762759,,,,,,,,,,,,,,,,,,,,,,,1024.3801,,,,,,,
4332956190493,-17.299301,-13.032394,14.046356,,,,,,,,,,,,,,,,,,,,,,,,,,,
4332972975161,,,,-9.978484,-12.212143,10.373354,,,,,,,,,,,,,,,,,,,,,,,,
4332956190493,,,,,,,5.6526337,-3.4550629,-1.2432556,,,,,,,,,,,,,,,,,,,,,
4332956190493,,,,,,,,,,,,,17.382813,32.077026,-26.576233,,,,,,,,,,,,,,,
4332972975161,,,,,,,,,,30.264618,4.472477,-40.926434,,,,,,,,,,,,,,,,,,
4332976332095,-15.932709,-12.685959,16.831467,,,,,,,,,,,,,,,,,,,,,,,,,,,
4332976332095,,,,,,,,,,,,,13.687134,30.073547,-31.047058,,,,,,,,,,,,,,,
4332976332095,,,,,,,5.9346466,-4.3341675,-0.6094208,,,,,,,,,,,,,,,,,,,,,
4332976332095,,,,,,,,,,,,,,,,,,,,,,,1024.387,,,,,,,
4332992781069,,,,-12.823193,-12.692675,10.21559,,,,,,,,,,,,,,,,,,,,,,,,
4332992781069,,,,,,,,,,32.866028,-1.1168867,-36.014095,,,,,,,,,,,,,,,,,,
4332996473696,-17.711243,-12.256088,16.820969,,,,,,,,,,,,,,,,,,,,,,,,,,,
4332996473696,,,,,,,,,,,,,13.031006,29.286194,-32.11975,,,,,,,,,,,,,,,
4332996473696,,,,,,,6.1648254,-4.505905,-0.35908508,,,,,,,,,,,,,,,,,,,,,
4333012525942,,,,-12.527936,-11.819097,8.058092,,,,,,,,,,,,,,,,,,,,,,,,
4333012525942,,,,,,,,,,35.643646,-6.7977176,-31.43951,,,,,,,,,,,,,,,,,,
4333009901431,,,,,,,,,,,,,,,,,,,,,,,1024.387,,,,,,,
4333016615298,-16.495346,-10.67424,15.375229,,,,,,,,,,,,,,,,,,,,,,,,,,,
4333016615298,,,,,,,5.832962,-3.8128967,-0.04612732,,,,,,,,,,,,,,,,,,,,,
4333032301333,,,,-10.348871,-11.251328,7.8257174,,,,,,,,,,,,,,,,,,,,,,,,
4333016615298,,,,,,,,,,,,,9.143066,24.269104,-38.009644,,,,,,,,,,,,,,,
4333032301333,,,,,,,,,,38.188538,-12.153585,-27.860405,,,,,,,,,,,,,,,,,,
4333036756899,-13.681,-8.929962,15.976898,,,,,,,,,,,,,,,,,,,,,,,,,,,
4333036756899,,,,,,,,,,,,,5.1696777,18.133545,-42.695618,,,,,,,,,,,,,,,
4333052107241,,,,-7.4051228,-8.825362,10.58596,,,,,,,,,,,,,,,,,,,,,,,,
4333036756899,,,,,,,5.123886,-2.663559,0.18629456,,,,,,,,,,,,,,,,,,,,,
4333043470767,,,,,,,,,,,,,,,,,,,,,,,1024.387,,,,,,,
4333052107241,,,,,,,,,,40.17691,-17.002203,-25.344694,,,,,,,,,,,,,,,,,,
4333056898501,-12.520905,-6.866577,18.426071,,,,,,,,,,,,,,,,,,,,,,,,,,,
4333056898501,,,,,,,,,,,,,4.0771484,16.706848,-43.76831,,,,,,,,,,,,,,,
4333056898501,,,,,,,4.718628,-1.9041595,0.2536621,,,,,,,,,,,,,,,,,,,,,
4333071882632,,,,-13.261127,-10.957045,11.764593,,,,,,,,,,,,,,,,,,,,,,,,
4333071882632,,,,,,,,,,42.45627,-21.63232,-23.631462,,,,,,,,,,,,,,,,,,
4333077040103,,,,,,,,,,,,,,,,,,,,,,,1024.387,,,,,,,
4333077040103,-17.495117,-8.2526245,19.305328,,,,,,,,,,,,,,,,,,,,,,,,,,,
4333091658022,,,,-16.289768,-12.819839,12.011659,,,,,,,,,,,,,,,,,,,,,,,,
4333091658022,,,,,,,,,,44.863647,-27.19133,-21.00799,,,,,,,,,,,,,,,,,,
4333077040103,,,,,,,5.2546387,-2.2526855,0.7493744,,,,,,,,,,,,,,,,,,,,,
4333077040103,,,,,,,,,,,,,0.44250488,10.624695,-47.16797,,,,,,,,,,,,,,,
4333097181704,-18.923721,-8.969635,19.131866,,,,,,,,,,,,,,,,,,,,,,,,,,,
4333097181704,,,,,,,,,,,,,-0.1739502,6.025696,-47.29004,,,,,,,,,,,,,,,
4333097181704,,,,,,,6.5582123,-3.913269,2.3905182,,,,,,,,,,,,,,,,,,,,,
4333110609439,,,,,,,,,,,,,,,,,,,,,,,1024.387,,,,,,,
4333111433413,,,,-15.03334,-13.654999,11.423739,,,,,,,,,,,,,,,,,,,,,,,,
4333111433413,,,,,,,,,,47.07776,-34.48358,-16.115723,,,,,,,,,,,,,,,,,,
4333117323306,-16.677948,-8.988449,18.033325,,,,,,,,,,,,,,,,,,,,,,,,,,,
4333117323306,,,,,,,,,,,,,-1.0696411,3.6209106,-47.583008,,,,,,,,,,,,,,,
4333117323306,,,,,,,7.98497,-5.152176,3.8660126,,,,,,,,,,,,,,,,,,,,,
4333131208804,,,,-13.212362,-15.427255,10.587536,,,,,,,,,,,,,,,,,,,,,,,,
4333131208804,,,,,,,,,,49.551575,-43.252537,-9.772178,,,,,,,,,,,,,,,,,,
4333137464907,-14.209,-9.785736,15.661804,,,,,,,,,,,,,,,,,,,,,,,,,,,
4333137464907,,,,,,,,,,,,,-5.293274,-4.4937134,-47.546387,,,,,,,,,,,,,,,
4333137464907,,,,,,,8.820175,-4.974228,4.4065247,,,,,,,,,,,,,,,,,,,,,
4333150984194,,,,-12.542272,-17.640194,7.4776807,,,,,,,,,,,,,,,,,,,,,,,,
4333150984194,,,,,,,,,,52.21524,-52.881615,-3.583532,,,,,,,,,,,,,,,,,,
4333157606509,-13.136551,-10.858307,11.681198,,,,,,,,,,,,,,,,,,,,,,,,,,,
4333157606509,,,,,,,,,,,,,-9.858704,-9.780884,-45.976257,,,,,,,,,,,,,,,
4333170759585,,,,-13.499488,-19.179304,5.407554,,,,,,,,,,,,,,,,,,,,,,,,
4333157606509,,,,,,,8.958359,-3.8102264,4.466278,,,,,,,,,,,,,,,,,,,,,
4333144178774,,,,,,,,,,,,,,,,,,,,,,,1024.386,,,,,,,
4333170759585,,,,,,,,,,54.55841,-62.665375,1.8430687,,,,,,,,,,,,,,,,,,
4333177748110,-13.444412,-11.619186,8.494934,,,,,,,,,,,,,,,,,,,,,,,,,,,
4333177748110,,,,,,,,,,,,,-12.397766,-13.644409,-43.48297,,,,,,,,,,,,,,,
4333190534976,,,,-14.879952,-20.228775,4.123753,,,,,,,,,,,,,,,,,,,,,,,,
4333177748110,,,,,,,8.5811615,-2.4830933,4.5288086,,,,,,,,,,,,,,,,,,,,,
4333190534976,,,,,,,,,,55.8248,-72.05364,6.7585807,,,,,,,,,,,,,,,,,,
4333177748110,,,,,,,,,,,,,,,,,,,,,,,1024.377,,,,,,,
4333197889712,-13.301392,-12.300293,5.864746,,,,,,,,,,,,,,,,,,,,,,,,,,,
4333197889712,,,,,,,7.930435,-0.84872437,4.895233,,,,,,,,,,,,,,,,,,,,,
4333197889712,,,,,,,,,,,,,-19.525146,-22.839355,-35.74829,,,,,,,,,,,,,,,
4333210310366,,,,-14.116747,-20.985165,2.9533107,,,,,,,,,,,,,,,,,,,,,,,,
4333210310366,,,,,,,,,,55.66989,-80.54781,11.880185,,,,,,,,,,,,,,,,,,
4333218031314,-12.015976,-13.416794,4.4536133,,,,,,,,,,,,,,,,,,,,,,,,,,,
4333218031314,,,,,,,,,,,,,-23.719788,-26.429749,-30.39093,,,,,,,,,,,,,,,
4333218031314,,,,,,,7.01239,0.65663147,5.570587,,,,,,,,,,,,,,,,,,,,,
4333211317446,,,,,,,,,,,,,,,,,,,,,,,1024.377,,,,,,,
4333230085757,,,,-14.07022,-22.465786,4.3154697,,,,,,,,,,,,,,,,,,,,,,,,
4333230085757,,,,,,,,,,54.313873,-87.58533,17.934448,,,,,,,,,,,,,,,,,,
4333238172915,-9.529327,-15.040619,5.3230896,,,,,,,,,,,,,,,,,,,,,,,,,,,
4333249861147,,,,-10.284228,-23.297987,6.7033744,,,,,,,,,,,,,,,,,,,,,,,,
4333238172915,,,,,,,6.1000824,1.6355743,6.5550537,,,,,,,,,,,,,,,,,,,,,
4333238172915,,,,,,,,,,,,,-25.360107,-25.743103,-28.511047,,,,,,,,,,,,,,,
4333249861147,,,,,,,,,,51.972626,-93.160645,25.64083,,,,,,,,,,,,,,,,,,
4333244886782,,,,,,,,,,,,,,,,,,,,,,,1024.377,,,,,,,
4333258314517,-3.8528595,-15.849533,7.965271,,,,,,,,,,,,,,,,,,,,,,,,,,,
4333269636538,,,,-4.709148,-22.45157,11.091812,,,,,,,,,,,,,,,,,,,,,,,,
4333258314517,,,,,,,5.5082397,2.1363068,7.6042175,,,,,,,,,,,,,,,,,,,,,
4333258314517,,,,,,,,,,,,,-29.013062,-23.886108,-23.973083,,,,,,,,,,,,,,,
4333269636538,,,,,,,,,,49.292786,-97.63271,35.04752,,,,,,,,,,,,,,,,,,
4333278456118,1.374466,-16.282684,10.848068,,,,,,,,,,,,,,,,,,,,,,,,,,,
4333278456118,,,,,,,,,,,,,-30.732727,-22.729492,-21.531677,,,,,,,,,,,,,,,
4333278456118,,,,,,,5.328644,2.593338,8.146988,,,,,,,,,,,,,,,,,,,,,
4333289411929,,,,-2.6166606,-22.362535,12.770618,,,,,,,,,,,,,,,,,,,,,,,,
4333289411929,,,,,,,,,,46.177338,-101.49621,45.4668,,,,,,,,,,,,,,,,,,
4333278456118,,,,,,,,,,,,,,,,,,,,,,,1024.377,,,,,,,
4333298597720,6.0480957,-16.946487,11.254517,,,,,,,,,,,,,,,,,,,,,,,,,,,
4333298597720,,,,,,,,,,,,,-32.90558,-20.231628,-21.37909,,,,,,,,,,,,,,,
4333298597720,,,,,,,5.540207,3.1003113,8.328827,,,,,,,,,,,,,,,,,,,,,
4333309187319,,,,2.7578683,-21.32834,11.945146,,,,,,,,,,,,,,,,,,,,,,,,
4333309187319,,,,,,,,,,42.067444,-105.03698,56.568638,,,,,,,,,,,,,,,,,,
4333312025454,,,,,,,,,,,,,,,,,,,,,,,1024.377,,,,,,,
4333318739321,12.556747,-16.62822,9.136124,,,,,,,,,,,,,,,,,,,,,,,,,,,
4333318739321,,,,,,,5.792465,3.5873108,8.157684,,,,,,,,,,,,,,,,,,,,,
4333328962710,,,,8.513954,-19.02171,8.280224,,,,,,,,,,,,,,,,,,,,,,,,
4333318739321,,,,,,,,,,,,,-36.457825,-13.044739,-21.440125,,,,,,,,,,,,,,,
4333328962710,,,,,,,,,,36.740814,-107.900055,67.779724,,,,,,,,,,,,,,,,,,
4333338880923,17.723282,-14.461334,4.4960327,,,,,,,,,,,,,,,,,,,,,,,,,,,
4333338880923,,,,,,,5.5512695,4.177658,7.215576,,,,,,,,,,,,,,,,,,,,,
4333338880923,,,,,,,,,,,,,-37.579346,-8.436584,-21.694946,,,,,,,,,,,,,,,
4333348738101,,,,11.670699,-14.39159,2.124752,,,,,,,,,,,,,,,,,,,,,,,,
4333345594790,,,,,,,,,,,,,,,,,,,,,,,1024.377,,,,,,,
4333348738101,,,,,,,,,,27.336761,-106.21288,77.9838,,,,,,,,,,,,,,,,,,
4333359022524,19.526505,-10.034592,-0.92663574,,,,,,,,,,,,,,,,,,,,,,,,,,,
4333368544009,,,,11.466423,-8.125862,-3.5018811,,,,,,,,,,,,,,,,,,,,,,,,
4333368544009,,,,,,,,,,348.98502,-74.058815,85.28952,,,,,,,,,,,,,,,,,,
4333359022524,,,,,,,,,,,,,-37.667847,-5.7296753,-23.143005,,,,,,,,,,,,,,,
4333359022524,,,,,,,4.6494904,4.629486,5.556946,,,,,,,,,,,,,,,,,,,,,
4333379164126,19.526505,-4.9394684,-0.7294159,,,,,,,,,,,,,,,,,,,,,,,,,,,
4333379164126,,,,,,,,,,,,,-36.849976,-1.4144897,-26.072693,,,,,,,,,,,,,,,
4333379164126,,,,,,,3.489563,4.466339,3.3139343,,,,,,,,,,,,,,,,,,,,,
4333388288882,,,,11.429696,-2.8434958,0.6031984,,,,,,,,,,,,,,,,,,,,,,,,
4333388288882,,,,,,,,,,276.55878,-5.9578724,83.67363,,,,,,,,,,,,,,,,,,
4333399305728,19.526505,-2.6112976,4.575714,,,,,,,,,,,,,,,,,,,,,,,,,,,
4333399305728,,,,,,,,,,,,,-36.07788,0.14038086,-27.438354,,,,,,,,,,,,,,,
4333399305728,,,,,,,2.914032,4.683975,0.8035126,,,,,,,,,,,,,,,,,,,,,
4333408094790,,,,11.486387,-2.4812326,5.3713164,,,,,,,,,,,,,,,,,,,,,,,,
4333379164126,,,,,,,,,,,,,,,,,,,,,,,1024.377,,,,,,,
4333408094790,,,,,,,,,,266.3645,0.6603151,78.32374,,,,,,,,,,,,,,,,,,
4333419447329,19.526505,-1.7378845,5.953247,,,,,,,,,,,,,,,,,,,,,,,,,,,
4333419447329,,,,,,,,,,,,,-33.872986,0.42877197,-29.603577,,,,,,,,,,,,,,,
4333419447329,,,,,,,2.8582153,6.2980957,-1.6571198,,,,,,,,,,,,,,,,,,,,,
4333427870181,,,,11.687746,-1.4745497,2.5319633,,,,,,,,,,,,,,,,,,,,,,,,
4333427870181,,,,,,,,,,270.22623,-6.583513,71.4022,,,,,,,,,,,,,,,,,,
4333412733462,,,,,,,,,,,,,,,,,,,,,,,1024.377,,,,,,,
4333439588931,19.526505,-0.2835083,8.938477,,,,,,,,,,,,,,,,,,,,,,,,,,,
4333439588931,,,,,,,2.4325256,8.088806,-3.9695587,,,,,,,,,,,,,,,,,,,,,
4333439588931,,,,,,,,,,,,,-27.578735,-3.048706,-33.255005,,,,,,,,,,,,,,,
4333447615054,,,,12.168171,-0.6831591,7.731282,,,,,,,,,,,,,,,,,,,,,,,,
4333447615054,,,,,,,,,,275.53455,-14.858812,61.882584,,,,,,,,,,,,,,,,,,
4333459730532,19.526505,-0.16122437,14.111877,,,,,,,,,,,,,,,,,,,,,,,,,,,
4333459730532,,,,,,,,,,,,,-24.388123,-5.5770874,-34.65576,,,,,,,,,,,,,,,
4333459730532,,,,,,,2.497696,8.890121,-5.550247,,,,,,,,,,,,,,,,,,,,,
4333467420962,,,,13.010149,-2.4301524,10.785042,,,,,,,,,,,,,,,,,,,,,,,,
4333467420962,,,,,,,,,,279.04657,-21.54599,50.678734,,,,,,,,,,,,,,,,,,
4333446302798,,,,,,,,,,,,,,,,,,,,,,,1024.377,,,,,,,
4333479872134,19.526505,-1.7393646,16.579987,,,,,,,,,,,,,,,,,,,,,,,,,,,
4333479872134,,,,,,,,,,,,,-18.815613,-8.436584,-35.37903,,,,,,,,,,,,,,,
4333479872134,,,,,,,3.6570587,8.973541,-6.2263794,,,,,,,,,,,,,,,,,,,,,
4333487196353,,,,14.166282,-5.5312104,11.220425,,,,,,,,,,,,,,,,,,,,,,,,
4333487196353,,,,,,,,,,280.38556,-27.506517,39.110443,,,,,,,,,,,,,,,,,,
4333479872134,,,,,,,,,,,,,,,,,,,,,,,1024.377,,,,,,,
4333500013735,19.526505,-4.7849274,15.280273,,,,,,,,,,,,,,,,,,,,,,,,,,,
4333506971743,,,,,,,,,,279.7324,-33.596416,27.065119,,,,,,,,,,,,,,,,,,
4333500013735,,,,,,,4.909134,9.635376,-6.7908936,,,,,,,,,,,,,,,,,,,,,
4333500013735,,,,,,,,,,,,,-10.23407,-13.061523,-36.97357,,,,,,,,,,,,,,,
4333506971743,,,,15.642193,-10.239349,7.9774084,,,,,,,,,,,,,,,,,,,,,,,,
4333520155337,19.526505,-9.043182,10.767624,,,,,,,,,,,,,,,,,,,,,,,,,,,
4333520155337,,,,,,,,,,,,,-7.3547363,-14.657593,-37.609863,,,,,,,,,,,,,,,
4333520155337,,,,,,,5.761566,11.115601,-7.378357,,,,,,,,,,,,,,,,,,,,,
4333513441470,,,,,,,,,,,,,,,,,,,,,,,1024.377,,,,,,,
4333526747134,,,,17.499714,-15.865419,2.6590514,,,,,,,,,,,,,,,,,,,,,,,,
4333526747134,,,,,,,,,,277.0622,-39.99574,13.766449,,,,,,,,,,,,,,,,,,
4333540296939,19.526505,-12.2625885,2.3976135,,,,,,,,,,,,,,,,,,,,,,,,,,,
4333540296939,,,,,,,6.039337,12.548996,-7.7868958,,,,,,,,,,,,,,,,,,,,,
4333540296939,,,,,,,,,,,,,3.1723022,-19.267273,-37.384033,,,,,,,,,,,,,,,
4333546522524,,,,19.626385,-19.231304,-6.355194,,,,,,,,,,,,,,,,,,,,,,,,
4333546522524,,,,,,,,,,272.68814,-47.214973,-0.67944723,,,,,,,,,,,,,,,,,,
4333547010806,,,,,,,,,,,,,,,,,,,,,,,1024.377,,,,,,,
4333560438540,17.614014,-13.458908,-7.324524,,,,,,,,,,,,,,,,,,,,,,,,,,,
4333560438540,,,,,,,5.3159027,12.966629,-7.9548645,,,,,,,,,,,,,,,,,,,,,
4333560438540,,,,,,,,,,,,,19.171143,-25.291443,-31.161499,,,,,,,,,,,,,,,
4333566297915,,,,19.016525,-20.207115,-14.655804,,,,,,,,,,,,,,,,,,,,,,,,
4333566297915,,,,,,,,,,266.5871,-55.532288,-15.471677,,,,,,,,,,,,,,,,,,
4333580580142,12.187668,-12.58577,-15.073807,,,,,,,,,,,,,,,,,,,,,,,,,,,
4333580580142,,,,,,,,,,,,,23.872375,-26.934814,-28.585815,,,,,,,,,,,,,,,
4333580580142,,,,,,,3.6748505,11.534103,-7.7813416,,,,,,,,,,,,,,,,,,,,,
4333580580142,,,,,,,,,,,,,,,,,,,,,,,1024.377,,,,,,,
4333586073306,,,,14.385134,-18.59058,-20.01138,,,,,,,,,,,,,,,,,,,,,,,,
4333586073306,,,,,,,,,,259.04477,-64.61253,-29.27037,,,,,,,,,,,,,,,,,,
4333600721743,1.5465088,-11.839905,-16.970901,,,,,,,,,,,,,,,,,,,,,,,,,,,
4333600721743,,,,,,,,,,,,,34.387207,-24.319458,-18.013,,,,,,,,,,,,,,,
4333600721743,,,,,,,1.2903748,8.188126,-6.967102,,,,,,,,,,,,,,,,,,,,,
4333605848696,,,,3.6967387,-17.518995,-18.785713,,,,,,,,,,,,,,,,,,,,,,,,
4333605848696,,,,,,,,,,251.3065,-72.62359,-40.839245,,,,,,,,,,,,,,,,,,
4333614149478,,,,,,,,,,,,,,,,,,,,,,,1024.377,,,,,,,
4333620863345,-7.467499,-10.571945,-11.415283,,,,,,,,,,,,,,,,,,,,,,,,,,,
4333620863345,,,,,,,-0.7829437,2.3164368,-4.757019,,,,,,,,,,,,,,,,,,,,,
4333620863345,,,,,,,,,,,,,41.870117,-15.997314,-4.345703,,,,,,,,,,,,,,,
4333625624087,,,,-3.3547525,-15.32408,-10.978017,,,,,,,,,,,,,,,,,,,,,,,,
4333625624087,,,,,,,,,,247.34012,-75.48663,-48.56668,,,,,,,,,,,,,,,,,,
4333641004946,-6.8835297,-6.9306183,-2.3242798,,,,,,,,,,,,,,,,,,,,,,,,,,,
4333641004946,,,,,,,-1.7334442,-4.1848755,-1.8188782,,,,,,,,,,,,,,,,,,,,,
4333641004946,,,,,,,,,,,,,43.077087,-13.648987,-1.1871338,,,,,,,,,,,,,,,
4333645429995,,,,-0.006913185,-10.686445,-1.9748523,,,,,,,,,,,,,,,,,,,,,,,,
4333645429995,,,,,,,,,,252.52084,-69.47256,-50.878735,,,,,,,,,,,,,,,,,,
4333661146548,0.16545105,-2.1830444,5.288681,,,,,,,,,,,,,,,,,,,,,,,,,,,
4333661146548,,,,,,,,,,,,,43.34259,-7.4935913,4.0359497,,,,,,,,,,,,,,,
4333661146548,,,,,,,-2.1674957,-8.97229,0.18574524,,,,,,,,,,,,,,,,,,,,,
4333665174868,,,,7.5832324,-5.764288,3.8142078,,,,,,,,,,,,,,,,,,,,,,,,
4333665174868,,,,,,,,,,264.6002,-57.656593,-47.043552,,,,,,,,,,,,,,,,,,
4333647718814,,,,,,,,,,,,,,,,,,,,,,,1024.377,,,,,,,
4333681288149,4.263855,1.4842224,13.794342,,,,,,,,,,,,,,,,,,,,,,,,,,,
4333681288149,,,,,,,-2.722229,-11.541061,0.48068237,,,,,,,,,,,,,,,,,,,,,
4333681288149,,,,,,,,,,,,,42.321777,-3.4484863,-1.0421753,,,,,,,,,,,,,,,
4333684950259,,,,9.726822,-2.3549829,11.082874,,,,,,,,,,,,,,,,,,,,,,,,
4333684950259,,,,,,,,,,276.81326,-45.829597,-38.30002,,,,,,,,,,,,,,,,,,
4333701429751,4.9170227,0.94737244,18.791718,,,,,,,,,,,,,,,,,,,,,,,,,,,
4333701429751,,,,,,,,,,,,,42.074585,-2.886963,-2.5009155,,,,,,,,,,,,,,,
4333701429751,,,,,,,-2.3923798,-14.308075,0.88394165,,,,,,,,,,,,,,,,,,,,,
4333681288149,,,,,,,,,,,,,,,,,,,,,,,1024.379,,,,,,,
4333704756167,,,,8.372725,-3.561376,13.7510395,,,,,,,,,,,,,,,,,,,,,,,,
4333704756167,,,,,,,,,,287.102,-36.766846,-25.690313,,,,,,,,,,,,,,,,,,
4333721571353,11.612656,2.8103485,19.47496,,,,,,,,,,,,,,,,,,,,,,,,,,,
4333721571353,,,,,,,,,,,,,38.523865,-1.8859863,-12.40387,,,,,,,,,,,,,,,
4333721571353,,,,,,,-0.6490021,-17.711853,2.4542847,,,,,,,,,,,,,,,,,,,,,
4333724531558,,,,13.952303,-1.0625529,12.829544,,,,,,,,,,,,,,,,,,,,,,,,
4333724531558,,,,,,,,,,295.55423,-32.549892,-8.399001,,,,,,,,,,,,,,,,,,
4333714857485,,,,,,,,,,,,,,,,,,,,,,,1024.387,,,,,,,
4333741712954,18.642578,10.314178,19.47496,,,,,,,,,,,,,,,,,,,,,,,,,,,
4333741712954,,,,,,,0.7754364,-16.285187,2.1694489,,,,,,,,,,,,,,,,,,,,,
4333741712954,,,,,,,,,,,,,30.935669,-0.541687,-27.546692,,,,,,,,,,,,,,,
4333744306948,,,,18.144783,7.0253463,12.846364,,,,,,,,,,,,,,,,,,,,,,,,
4333744306948,,,,,,,,,,303.45178,-33.37206,9.875024,,,,,,,,,,,,,,,,,,
4333761854556,19.526505,10.223404,19.47496,,,,,,,,,,,,,,,,,,,,,,,,,,,
4333761854556,,,,,,,,,,,,,29.884338,-0.36468506,-29.570007,,,,,,,,,,,,,,,
4333761854556,,,,,,,-1.3262787,-8.936752,-2.3942108,,,,,,,,,,,,,,,,,,,,,
4333748426821,,,,,,,,,,,,,,,,,,,,,,,1024.387,,,,,,,
4333764082339,,,,16.570047,5.712401,13.254438,,,,,,,,,,,,,,,,,,,,,,,,
4333764082339,,,,,,,,,,311.4396,-35.04362,21.261744,,,,,,,,,,,,,,,,,,
4333781996157,3.6461334,-2.3924255,19.47496,,,,,,,,,,,,,,,,,,,,,,,,,,,
4333781996157,,,,,,,,,,,,,18.084717,-0.66986084,-38.487244,,,,,,,,,,,,,,,
4333781996157,,,,,,,-2.5543213,-1.0639801,-7.665451,,,,,,,,,,,,,,,,,,,,,
4333783857730,,,,-0.9816103,-8.042011,13.222587,,,,,,,,,,,,,,,,,,,,,,,,
4333783857730,,,,,,,,,,319.21722,-34.851322,21.344267,,,,,,,,,,,,,,,,,,
4333781996157,,,,,,,,,,,,,,,,,,,,,,,1024.387,,,,,,,
4333802137759,-17.849396,-9.274918,19.47496,,,,,,,,,,,,,,,,,,,,,,,,,,,
4333802137759,,,,,,,0.0730896,-0.08905029,-7.7167816,,,,,,,,,,,,,,,,,,,,,
4333802137759,,,,,,,,,,,,,6.97937,-0.390625,-44.569397,,,,,,,,,,,,,,,
4333803633120,,,,-21.651714,-14.278137,13.056887,,,,,,,,,,,,,,,,,,,,,,,,
4333803633120,,,,,,,,,,327.52863,-35.31153,15.483992,,,,,,,,,,,,,,,,,,
4333822279360,-19.4729,-14.627029,15.926544,,,,,,,,,,,,,,,,,,,,,,,,,,,
4333822279360,,,,,,,,,,,,,6.17218,-0.36468506,-44.992065,,,,,,,,,,,,,,,
4333822279360,,,,,,,4.022339,-4.7174377,-0.2706604,,,,,,,,,,,,,,,,,,,,,
4333815565493,,,,,,,,,,,,,,,,,,,,,,,1024.387,,,,,,,
4333823408511,,,,-21.509008,-19.802788,9.562591,,,,,,,,,,,,,,,,,,,,,,,,
4333823408511,,,,,,,,,,333.42868,-38.432083,14.541359,,,,,,,,,,,,,,,,,,
4333842420962,-19.4729,-9.385345,0.39457703,,,,,,,,,,,,,,,,,,,,,,,,,,,
4333842420962,,,,,,,5.703171,-7.1883698,7.513321,,,,,,,,,,,,,,,,,,,,,
4333842420962,,,,,,,,,,,,,4.083252,1.7364502,-46.411133,,,,,,,,,,,,,,,
4333843183901,,,,-22.441654,-14.378832,-5.512752,,,,,,,,,,,,,,,,,,,,,,,,
4333843183901,,,,,,,,,,335.68823,-44.58164,21.777967,,,,,,,,,,,,,,,,,,
4333849134829,,,,,,,,,,,,,,,,,,,,,,,1024.387,,,,,,,
4333862562564,3.9581451,-3.6627502,-0.80804443,,,,,,,,,,,,,,,,,,,,,,,,,,,
4333862562564,,,,,,,3.6273804,-3.8630219,9.318115,,,,,,,,,,,,,,,,,,,,,
4333862562564,,,,,,,,,,,,,-3.691101,-1.638794,-47.273254,,,,,,,,,,,,,,,
4333862959292,,,,0.12448549,-8.615126,-5.191054,,,,,,,,,,,,,,,,,,,,,,,,
4333862959292,,,,,,,,,,332.8969,-49.20662,32.811264,,,,,,,,,,,,,,,,,,
4333882704165,19.503006,-2.7182922,-6.105789,,,,,,,,,,,,,,,,,,,,,,,,,,,
4333882704165,,,,,,,,,,,,,-3.8482666,-1.7089844,-47.29004,,,,,,,,,,,,,,,
4333882704165,,,,,,,0.67440796,0.6838379,7.465683,,,,,,,,,,,,,,,,,,,,,
4333882734683,,,,14.236916,-7.1425753,-10.092289,,,,,,,,,,,,,,,,,,,,,,,,
4333882734683,,,,,,,,,,325.7172,-48.04687,41.633366,,,,,,,,,,,,,,,,,,
4333882704165,,,,,,,,,,,,,,,,,,,,,,,1024.387,,,,,,,
4333902510073,,,,13.911606,7.4456387,-14.347313,,,,,,,,,,,,,,,,,,,,,,,,
4333902510073,,,,,,,,,,319.13324,-42.825428,44.64146,,,,,,,,,,,,,,,,,,
4333902845767,19.526505,11.208176,-9.674179,,,,,,,,,,,,,,,,,,,,,,,,,,,
4333902845767,,,,,,,,,,,,,-12.480164,-6.413269,-45.29724,,,,,,,,,,,,,,,
4333902845767,,,,,,,-2.4764252,2.8463745,2.1461487,,,,,,,,,,,,,,,,,,,,,
4333922285464,,,,14.185884,1.6017091,14.644724,,,,,,,,,,,,,,,,,,,,,,,,
4333922285464,,,,,,,,,,316.78775,-37.279785,41.340122,,,,,,,,,,,,,,,,,,
4333922987368,19.526505,5.170288,19.394852,,,,,,,,,,,,,,,,,,,,,,,,,,,
4333922987368,,,,,,,-4.557419,3.1424866,-4.291321,,,,,,,,,,,,,,,,,,,,,
4333942091372,,,,14.926294,-1.7200885,11.741322,,,,,,,,,,,,,,,,,,,,,,,,
4333922987368,,,,,,,,,,,,,-9.526062,-6.0821533,-44.007874,,,,,,,,,,,,,,,
4333916273501,,,,,,,,,,,,,,,,,,,,,,,1024.3883,,,,,,,
4333942091372,,,,,,,,,,318.99384,-35.75345,34.302204,,,,,,,,,,,,,,,,,,
4333943128970,19.226334,1.8582458,16.47287,,,,,,,,,,,,,,,,,,,,,,,,,,,
4333943128970,,,,,,,,,,,,,-9.394836,-5.773926,-44.102478,,,,,,,,,,,,,,,
4333943128970,,,,,,,-1.0209961,4.2932434,-6.845169,,,,,,,,,,,,,,,,,,,,,
4333961866763,,,,10.235289,-9.209656,-2.6603699,,,,,,,,,,,,,,,,,,,,,,,,
4333961866763,,,,,,,,,,322.4472,-38.251293,25.974516,,,,,,,,,,,,,,,,,,
4333949842837,,,,,,,,,,,,,,,,,,,,,,,1024.397,,,,,,,
4333963270571,12.361862,-5.1251526,2.949463,,,,,,,,,,,,,,,,,,,,,,,,,,,
4333981642153,,,,-8.98377,-16.16062,-4.6545997,,,,,,,,,,,,,,,,,,,,,,,,
4333963270571,,,,,,,1.3760834,3.7127075,-8.079559,,,,,,,,,,,,,,,,,,,,,
4333963270571,,,,,,,,,,,,,-6.7489624,-0.11444092,-45.87097,,,,,,,,,,,,,,,
4333981642153,,,,,,,,,,327.88055,-41.8579,17.77159,,,,,,,,,,,,,,,,,,
4333983412173,-7.6803894,-11.355896,1.9959259,,,,,,,,,,,,,,,,,,,,,,,,,,,
4333983412173,,,,,,,,,,,,,-3.1799316,0.98114014,-46.632385,,,,,,,,,,,,,,,
4333983412173,,,,,,,1.472229,0.93099976,-7.977295,,,,,,,,,,,,,,,,,,,,,
4333983412173,,,,,,,,,,,,,,,,,,,,,,,1024.397,,,,,,,
4334001417544,,,,-21.16035,-20.12057,5.8787255,,,,,,,,,,,,,,,,,,,,,,,,
4334001417544,,,,,,,,,,334.80594,-44.623302,12.184007,,,,,,,,,,,,,,,,,,
4334003553774,-19.4729,-14.376465,11.4743805,,,,,,,,,,,,,,,,,,,,,,,,,,,
4334003553774,,,,,,,,,,,,,-2.87323,0.5264282,-46.614075,,,,,,,,,,,,,,,
4334021192935,,,,-20.984707,-18.006737,6.4781866,,,,,,,,,,,,,,,,,,,,,,,,
4334021192935,,,,,,,,,,339.60687,-47.394985,10.989539,,,,,,,,,,,,,,,,,,
4334003553774,,,,,,,1.8501434,-2.1802826,-4.9736176,,,,,,,,,,,,,,,,,,,,,
4334016981509,,,,,,,,,,,,,,,,,,,,,,,1024.397,,,,,,,
4334023695376,-19.4729,-11.620529,9.479233,,,,,,,,,,,,,,,,,,,,,,,,,,,
4334023695376,,,,,,,2.9181824,-1.4896545,1.0952759,,,,,,,,,,,,,,,,,,,,,
4334040968325,,,,-21.24962,-12.938207,-11.067734,,,,,,,,,,,,,,,,,,,,,,,,
4334023695376,,,,,,,,,,,,,-0.6576538,-3.5003662,-46.572876,,,,,,,,,,,,,,,
4334040968325,,,,,,,,,,339.1336,-50.11971,13.127904,,,,,,,,,,,,,,,,,,
4334043836978,-17.64296,-7.7913055,-5.214218,,,,,,,,,,,,,,,,,,,,,,,,,,,
4334043836978,,,,,,,,,,,,,-2.8457642,-5.4092407,-47.29004,,,,,,,,,,,,,,,
4334043836978,,,,,,,2.0708923,0.9651947,5.586014,,,,,,,,,,,,,,,,,,,,,
4334060743716,,,,-9.18815,-17.505238,-4.3060474,,,,,,,,,,,,,,,,,,,,,,,,
4334050550845,,,,,,,,,,,,,,,,,,,,,,,1024.397,,,,,,,
4334060743716,,,,,,,,,,333.36545,-49.349007,17.548914,,,,,,,,,,,,,,,,,,
4334063978579,-2.534851,-11.882355,0.25683594,,,,,,,,,,,,,,,,,,,,,,,,,,,
4334063978579,,,,,,,,,,,,,-2.9556274,-5.961609,-47.235107,,,,,,,,,,,,,,,
4334063978579,,,,,,,-0.7599945,1.2091675,7.488571,,,,,,,,,,,,,,,,,,,,,
4334080488589,,,,16.342926,-16.657574,-5.939052,,,,,,,,,,,,,,,,,,,,,,,,
4334080488589,,,,,,,,,,324.1423,-44.738052,24.449635,,,,,,,,,,,,,,,,,,
4334084120181,,,,,,,,,,,,,,,,,,,,,,,1024.397,,,,,,,
4334084120181,19.526505,-8.878128,-0.19068909,,,,,,,,,,,,,,,,,,,,,,,,,,,
4334084120181,,,,,,,-2.592636,0.023498535,8.829544,,,,,,,,,,,,,,,,,,,,,
4334084120181,,,,,,,,,,,,,-3.6987305,-8.5876465,-46.71936,,,,,,,,,,,,,,,
4334100263980,,,,15.399679,-0.24188423,-1.881105,,,,,,,,,,,,,,,,,,,,,,,,
4334100263980,,,,,,,,,,316.55017,-38.183823,32.286747,,,,,,,,,,,,,,,,,,
4334104261782,19.526505,5.2676544,6.1966553,,,,,,,,,,,,,,,,,,,,,,,,,,,
4334104261782,,,,,,,,,,,,,-4.5150757,-7.763672,-45.648193,,,,,,,,,,,,,,,
4334104261782,,,,,,,-3.6392212,-2.7466888,6.7250824,,,,,,,,,,,,,,,,,,,,,
4334117689517,,,,,,,,,,,,,,,,,,,,,,,1024.397,,,,,,,
4334120039370,,,,,,,,,,313.04745,-31.95274,39.006756,,,,,,,,,,,,,,,,,,
4334120039370,,,,14.598122,7.8571777,12.653169,,,,,,,,,,,,,,,,,,,,,,,,
4334124403384,19.526505,10.890244,18.181976,,,,,,,,,,,,,,,,,,,,,,,,,,,
4334124403384,,,,,,,-3.5427399,-3.1942139,1.8372192,,,,,,,,,,,,,,,,,,,,,
4334124403384,,,,,,,,,,,,,-5.105591,-6.2805176,-46.081543,,,,,,,,,,,,,,,
4334139814761,,,,14.252598,7.289874,14.321949,,,,,,,,,,,,,,,,,,,,,,,,
4334139814761,,,,,,,,,,315.02017,-29.706242,41.63567,,,,,,,,,,,,,,,,,,
4334144544985,19.526505,7.6625977,18.896591,,,,,,,,,,,,,,,,,,,,,,,,,,,
4334144544985,,,,,,,,,,,,,-8.222961,0.08392334,-46.835327,,,,,,,,,,,,,,,
4334144544985,,,,,,,-1.4083405,-0.78263855,-4.3003235,,,,,,,,,,,,,,,,,,,,,
4334159651187,,,,14.548919,-3.9453535,11.77472,,,,,,,,,,,,,,,,,,,,,,,,
4334159651187,,,,,,,,,,321.17938,-32.872883,38.399525,,,,,,,,,,,,,,,,,,
4334164686587,14.609604,-3.262207,15.049164,,,,,,,,,,,,,,,,,,,,,,,,,,,
4334164686587,,,,,,,,,,,,,-11.529541,3.6712646,-44.335938,,,,,,,,,,,,,,,
4334164686587,,,,,,,0.56591797,2.0162506,-8.806992,,,,,,,,,,,,,,,,,,,,,
4334151258853,,,,,,,,,,,,,,,,,,,,,,,1024.397,,,,,,,
4334179396060,,,,-3.7596483,-15.49292,3.7897725,,,,,,,,,,,,,,,,,,,,,,,,
4334179396060,,,,,,,,,,328.93317,-38.24112,30.15113,,,,,,,,,,,,,,,,,,
4334184828189,-5.1705017,-12.147049,7.812668,,,,,,,,,,,,,,,,,,,,,,,,,,,
4334184828189,,,,,,,,,,,,,-11.392212,3.0700684,-44.830322,,,,,,,,,,,,,,,
4334184828189,,,,,,,1.3362885,2.6780853,-9.796814,,,,,,,,,,,,,,,,,,,,,
4334199171450,,,,-22.260855,-19.558802,-1.2867527,,,,,,,,,,,,,,,,,,,,,,,,
4334199171450,,,,,,,,,,336.43158,-42.551323,20.752497,,,,,,,,,,,,,,,,,,
4334184828189,,,,,,,,,,,,,,,,,,,,,,,1024.397,,,,,,,
4334204969790,-19.4729,-12.638046,2.127655,,,,,,,,,,,,,,,,,,,,,,,,,,,
4334204969790,,,,,,,1.1582336,1.627121,-6.5429535,,,,,,,,,,,,,,,,,,,,,
4334204969790,,,,,,,,,,,,,-10.0997925,0.45013428,-46.380615,,,,,,,,,,,,,,,
4334218946841,,,,-21.457394,-13.228382,-8.048175,,,,,,,,,,,,,,,,,,,,,,,,
4334218946841,,,,,,,,,,341.01566,-44.67022,14.80293,,,,,,,,,,,,,,,,,,
4334225111392,-19.4729,-7.370285,-2.6743164,,,,,,,,,,,,,,,,,,,,,,,,,,,
4334225111392,,,,,,,,,,,,,-7.8552246,-2.0462036,-46.96045,,,,,,,,,,,,,,,
4334225111392,,,,,,,0.19569397,0.7333832,-0.60002136,,,,,,,,,,,,,,,,,,,,,
4334218397524,,,,,,,,,,,,,,,,,,,,,,,1024.397,,,,,,,
4334238722231,,,,-21.3485,-11.293153,-7.9233675,,,,,,,,,,,,,,,,,,,,,,,,
4334238722231,,,,,,,,,,341.4877,-44.335934,14.146006,,,,,,,,,,,,,,,,,,
4334245252993,-12.518204,-6.7503357,-0.2721405,,,,,,,,,,,,,,,,,,,,,,,,,,,
4334245252993,,,,,,,,,,,,,-7.084656,-2.7130127,-47.28546,,,,,,,,,,,,,,,
4334258497622,,,,-0.86128044,-12.871237,-0.9629216,,,,,,,,,,,,,,,,,,,,,,,,
4334245252993,,,,,,,-1.0200195,-0.38464355,4.5602264,,,,,,,,,,,,,,,,,,,,,
4334258497622,,,,,,,,,,337.141,-41.485184,18.712471,,,,,,,,,,,,,,,,,,
4334251966860,,,,,,,,,,,,,,,,,,,,,,,1024.397,,,,,,,
4334265394595,7.842987,-3.7628937,4.4749756,,,,,,,,,,,,,,,,,,,,,,,,,,,
4334278273013,,,,16.08647,0.13006926,-0.9027672,,,,,,,,,,,,,,,,,,,,,,,,
4334265394595,,,,,,,-1.8824615,-1.8602448,7.2119446,,,,,,,,,,,,,,,,,,,,,
4334278273013,,,,,,,,,,331.1052,-37.60124,26.67767,,,,,,,,,,,,,,,,,,
4334265394595,,,,,,,,,,,,,-5.8685303,-3.5949707,-47.372437,,,,,,,,,,,,,,,
4334285536196,19.526505,8.947174,8.628754,,,,,,,,,,,,,,,,,,,,,,,,,,,
4334285536196,,,,,,,,,,,,,-6.5200806,-2.7191162,-46.30432,,,,,,,,,,,,,,,
4334285536196,,,,,,,-1.65065,-4.0011444,6.2444763,,,,,,,,,,,,,,,,,,,,,
4334285536196,,,,,,,,,,,,,,,,,,,,,,,1024.4027,,,,,,,
4334298048403,,,,15.119913,13.276577,10.454349,,,,,,,,,,,,,,,,,,,,,,,,
4334298048403,,,,,,,,,,328.76428,-34.90741,34.54039,,,,,,,,,,,,,,,,,,
4334305677798,19.526505,13.731491,17.159073,,,,,,,,,,,,,,,,,,,,,,,,,,,
4334317823794,,,,14.716129,5.007141,14.395156,,,,,,,,,,,,,,,,,,,,,,,,
4334305677798,,,,,,,,,,,,,-7.6156616,-1.7471313,-46.366882,,,,,,,,,,,,,,,
4334305677798,,,,,,,-1.0570068,-3.8166656,0.50717163,,,,,,,,,,,,,,,,,,,,,
4334317823794,,,,,,,,,,331.66006,-35.44436,37.649075,,,,,,,,,,,,,,,,,,
4334319105532,,,,,,,,,,,,,,,,,,,,,,,1024.407,,,,,,,
4334325819399,19.526505,4.494339,17.616547,,,,,,,,,,,,,,,,,,,,,,,,,,,
4334337599185,,,,15.135856,-5.7592363,9.753289,,,,,,,,,,,,,,,,,,,,,,,,
4334337599185,,,,,,,,,,337.48514,-39.13647,33.603302,,,,,,,,,,,,,,,,,,
4334325819399,,,,,,,-0.055007935,-0.34594727,-5.921036,,,,,,,,,,,,,,,,,,,,,
4334325819399,,,,,,,,,,,,,-11.51886,1.0269165,-45.93811,,,,,,,,,,,,,,,
4334345961001,7.5246887,-6.4275208,10.6788025,,,,,,,,,,,,,,,,,,,,,,,,,,,
4334357405093,,,,-12.16303,-17.989944,-0.22529697,,,,,,,,,,,,,,,,,,,,,,,,
4334357405093,,,,,,,,,,345.1447,-43.771908,24.547949,,,,,,,,,,,,,,,,,,
4334345961001,,,,,,,0.99760437,1.9945984,-9.465576,,,,,,,,,,,,,,,,,,,,,
4334345961001,,,,,,,,,,,,,-14.701843,2.8305054,-45.15686,,,,,,,,,,,,,,,
4334352674868,,,,,,,,,,,,,,,,,,,,,,,1024.4154,,,,,,,
4334366102603,-13.550949,-12.998901,6.2814026,,,,,,,,,,,,,,,,,,,,,,,,,,,
4334366102603,,,,,,,,,,,,,-13.821411,1.6464233,-44.72351,,,,,,,,,,,,,,,
4334366102603,,,,,,,1.4069061,0.7824707,-8.7330475,,,,,,,,,,,,,,,,,,,,,
4334377180483,,,,-21.691822,-18.39869,2.9549637,,,,,,,,,,,,,,,,,,,,,,,,
4334377180483,,,,,,,,,,352.99188,-47.280075,16.609282,,,,,,,,,,,,,,,,,,
4334386244204,,,,,,,,,,,,,,,,,,,,,,,1024.417,,,,,,,
4334396925356,,,,-21.391312,-15.075374,-2.2757797,,,,,,,,,,,,,,,,,,,,,,,,
4334386244204,-19.4729,-11.3207855,5.4950104,,,,,,,,,,,,,,,,,,,,,,,,,,,
4334396925356,,,,,,,,,,357.5951,-49.577785,14.480184,,,,,,,,,,,,,,,,,,
4334386244204,,,,,,,1.5518036,-1.1012115,-3.0753937,,,,,,,,,,,,,,,,,,,,,
4334386244204,,,,,,,,,,,,,-12.469482,-2.2537231,-44.999695,,,,,,,,,,,,,,,
4334406385806,-17.280823,-7.2871704,0.44215393,,,,,,,,,,,,,,,,,,,,,,,,,,,
4334406385806,,,,,,,,,,,,,-12.197876,-5.0735474,-45.976257,,,,,,,,,,,,,,,
4334406385806,,,,,,,1.3092651,-1.2886505,3.8306274,,,,,,,,,,,,,,,,,,,,,
4334416731265,,,,,,,,,,356.90277,-50.493065,18.33609,,,,,,,,,,,,,,,,,,
4334416731265,,,,-17.270195,-10.510725,-6.434457,,,,,,,,,,,,,,,,,,,,,,,,
4334426527407,-0.8434906,-5.038269,2.1972046,,,,,,,,,,,,,,,,,,,,,,,,,,,
4334426527407,,,,,,,,,,,,,-12.611389,-6.323242,-45.89386,,,,,,,,,,,,,,,
4334426527407,,,,,,,0.17807007,-0.9236908,7.6486664,,,,,,,,,,,,,,,,,,,,,
4334436506655,,,,10.128625,-10.220361,1.809495,,,,,,,,,,,,,,,,,,,,,,,,
4334436506655,,,,,,,,,,350.5471,-48.470768,26.069853,,,,,,,,,,,,,,,,,,
4334419813540,,,,,,,,,,,,,,,,,,,,,,,1024.407,,,,,,,
4334446669009,16.577255,1.840332,4.0579834,,,,,,,,,,,,,,,,,,,,,,,,,,,
4334456282046,,,,15.250625,3.9263515,-2.5139256,,,,,,,,,,,,,,,,,,,,,,,,
4334456282046,,,,,,,,,,344.14453,-45.46618,34.101955,,,,,,,,,,,,,,,,,,
4334446669009,,,,,,,-0.3930359,-1.3325958,7.8715973,,,,,,,,,,,,,,,,,,,,,
4334446669009,,,,,,,,,,,,,-14.491272,-5.609131,-45.72754,,,,,,,,,,,,,,,
4334466810610,19.526505,12.010544,6.3112183,,,,,,,,,,,,,,,,,,,,,,,,,,,
4334466810610,,,,,,,,,,,,,-15.655518,-2.191162,-44.914246,,,,,,,,,,,,,,,
4334466810610,,,,,,,-0.21795654,-2.729477,4.50943,,,,,,,,,,,,,,,,,,,,,
4334453382876,,,,,,,,,,,,,,,,,,,,,,,1024.407,,,,,,,
4334476057437,,,,14.5509205,11.033793,5.9498606,,,,,,,,,,,,,,,,,,,,,,,,
4334476057437,,,,,,,,,,342.2769,-44.31908,40.13225,,,,,,,,,,,,,,,,,,
4334486952212,19.526505,11.729233,13.157196,,,,,,,,,,,,,,,,,,,,,,,,,,,
4334486952212,,,,,,,,,,,,,-16.851807,-0.43182373,-43.016052,,,,,,,,,,,,,,,
4334486952212,,,,,,,-0.08027649,-2.2907562,-1.0026245,,,,,,,,,,,,,,,,,,,,,
4334495832827,,,,14.34309,4.725091,11.539766,,,,,,,,,,,,,,,,,,,,,,,,
4334495832827,,,,,,,,,,345.23926,-46.105522,41.581726,,,,,,,,,,,,,,,,,,
4334486952212,,,,,,,,,,,,,,,,,,,,,,,1024.407,,,,,,,
4334507093814,19.526505,4.3099976,12.708435,,,,,,,,,,,,,,,,,,,,,,,,,,,
4334507093814,,,,,,,0.5273285,-0.32312012,-5.6704865,,,,,,,,,,,,,,,,,,,,,
4334507093814,,,,,,,,,,,,,-18.777466,1.5777588,-41.281128,,,,,,,,,,,,,,,
4334515608218,,,,14.712682,-3.9430804,6.5319347,,,,,,,,,,,,,,,,,,,,,,,,
4334515608218,,,,,,,,,,349.985,-49.95277,37.768265,,,,,,,,,,,,,,,,,,
4334527235415,6.4136505,-3.5328217,7.8912354,,,,,,,,,,,,,,,,,,,,,,,,,,,
4334527235415,,,,,,,,,,,,,-19.496155,2.0126343,-41.140747,,,,,,,,,,,,,,,
4334527235415,,,,,,,1.1446838,0.22267151,-8.084396,,,,,,,,,,,,,,,,,,,,,
4334520521548,,,,,,,,,,,,,,,,,,,,,,,1024.407,,,,,,,
4334535414126,,,,-6.7629814,-12.069551,2.1277187,,,,,,,,,,,,,,,,,,,,,,,,
4334535414126,,,,,,,,,,356.39078,-54.50665,30.42556,,,,,,,,,,,,,,,,,,
4334547377017,-12.905609,-6.950409,9.701431,,,,,,,,,,,,,,,,,,,,,,,,,,,
4334547377017,,,,,,,1.391983,-1.187149,-7.2423553,,,,,,,,,,,,,,,,,,,,,
4334547377017,,,,,,,,,,,,,-20.306396,-0.6362915,-40.742493,,,,,,,,,,,,,,,
4334555158999,,,,,,,,,,4.161499,-58.33469,23.330856,,,,,,,,,,,,,,,,,,
4334555158999,,,,-22.533432,-13.224525,8.361221,,,,,,,,,,,,,,,,,,,,,,,,
4334554090884,,,,,,,,,,,,,,,,,,,,,,,1024.407,,,,,,,
4334567518618,-19.4729,-6.589859,11.99852,,,,,,,,,,,,,,,,,,,,,,,,,,,
4334567518618,,,,,,,2.1848602,-1.9164429,-2.3776703,,,,,,,,,,,,,,,,,,,,,
4334567518618,,,,,,,,,,,,,-19.581604,-6.562805,-40.074158,,,,,,,,,,,,,,,
4334574934390,,,,-22.168478,-12.534313,8.536329,,,,,,,,,,,,,,,,,,,,,,,,
4334574934390,,,,,,,,,,9.893372,-61.58379,20.61766,,,,,,,,,,,,,,,,,,
4334587660220,-19.4729,-5.96669,2.3563385,,,,,,,,,,,,,,,,,,,,,,,,,,,
4334587660220,,,,,,,,,,,,,-18.829346,-9.085083,-39.82849,,,,,,,,,,,,,,,
4334594740298,,,,-22.527426,-12.050102,-5.945314,,,,,,,,,,,,,,,,,,,,,,,,
4334587660220,,,,,,,2.7737427,-1.0542297,4.1571655,,,,,,,,,,,,,,,,,,,,,
4334587660220,,,,,,,,,,,,,,,,,,,,,,,1024.407,,,,,,,
4334594740298,,,,,,,,,,10.794189,-64.54519,23.873814,,,,,,,,,,,,,,,,,,
4334607801821,-4.4551086,-8.321594,-0.6333313,,,,,,,,,,,,,,,,,,,,,,,,,,,
4334607801821,,,,,,,,,,,,,-20.263672,-12.306213,-39.07013,,,,,,,,,,,,,,,
4334607801821,,,,,,,1.9465942,-0.32785034,8.491684,,,,,,,,,,,,,,,,,,,,,
4334614515689,,,,-0.7511234,-15.325472,-2.1061683,,,,,,,,,,,,,,,,,,,,,,,,
4334614515689,,,,,,,,,,6.0906677,-64.89654,32.45657,,,,,,,,,,,,,,,,,,
4334621229556,,,,,,,,,,,,,,,,,,,,,,,1024.407,,,,,,,
4334627943423,14.306381,-4.5153046,-4.376587,,,,,,,,,,,,,,,,,,,,,,,,,,,
4334627943423,,,,,,,1.059967,-0.66545105,9.700714,,,,,,,,,,,,,,,,,,,,,
4334627943423,,,,,,,,,,,,,-23.155212,-12.249756,-36.56311,,,,,,,,,,,,,,,
4334634291079,,,,14.3994875,-6.984537,-9.181972,,,,,,,,,,,,,,,,,,,,,,,,
4334634291079,,,,,,,,,,359.3262,-63.17941,43.173405,,,,,,,,,,,,,,,,,,
4334648085024,19.526505,9.830414,-2.782837,,,,,,,,,,,,,,,,,,,,,,,,,,,
4334648085024,,,,,,,0.20425415,-2.602417,6.1801147,,,,,,,,,,,,,,,,,,,,,
4334648085024,,,,,,,,,,,,,-24.172974,-11.439514,-35.56366,,,,,,,,,,,,,,,
4334654066470,,,,13.594202,10.833881,-3.2512107,,,,,,,,,,,,,,,,,,,,,,,,
4334654066470,,,,,,,,,,357.3572,-62.483475,51.57747,,,,,,,,,,,,,,,,,,
4334668226626,19.526505,11.155151,11.830734,,,,,,,,,,,,,,,,,,,,,,,,,,,
4334668226626,,,,,,,,,,,,,-26.205444,-6.262207,-35.679626,,,,,,,,,,,,,,,
4334668226626,,,,,,,-0.4144745,-2.0680237,-0.8577728,,,,,,,,,,,,,,,,,,,,,
4334673841860,,,,13.362659,5.5337396,14.968294,,,,,,,,,,,,,,,,,,,,,,,,
4334673841860,,,,,,,,,,0.53967285,-64.176865,53.578068,,,,,,,,,,,,,,,,,,
4334654798892,,,,,,,,,,,,,,,,,,,,,,,1024.407,,,,,,,
4334688368228,19.526505,1.7872314,12.740707,,,,,,,,,,,,,,,,,,,,,,,,,,,
4334688368228,,,,,,,0.32418823,0.91748047,-6.836197,,,,,,,,,,,,,,,,,,,,,
4334688368228,,,,,,,,,,,,,-29.832458,-1.121521,-34.883118,,,,,,,,,,,,,,,
4334693617251,,,,13.790464,-5.7711015,9.182851,,,,,,,,,,,,,,,,,,,,,,,,
4334693617251,,,,,,,,,,3.299652,-66.67933,48.10641,,,,,,,,,,,,,,,,,,
4334708509829,-3.9094086,-7.072418,5.379547,,,,,,,,,,,,,,,,,,,,,,,,,,,
4334708509829,,,,,,,,,,,,,-30.851746,-0.0045776367,-34.579468,,,,,,,,,,,,,,,
4334708509829,,,,,,,1.0910645,1.6190491,-9.032654,,,,,,,,,,,,,,,,,,,,,
4334713423159,,,,-16.326855,-14.668121,1.3541217,,,,,,,,,,,,,,,,,,,,,,,,
4334688368228,,,,,,,,,,,,,,,,,,,,,,,1024.407,,,,,,,
4334713423159,,,,,,,,,,6.324707,-69.48184,38.045208,,,,,,,,,,,,,,,,,,
4334728651431,-17.672073,-8.169846,11.618729,,,,,,,,,,,,,,,,,,,,,,,,,,,
4334728651431,,,,,,,,,,,,,-29.82483,-3.6315918,-33.81958,,,,,,,,,,,,,,,
4334728651431,,,,,,,1.4615021,-0.7201233,-5.7082977,,,,,,,,,,,,,,,,,,,,,
4334733198550,,,,-23.223888,-14.086132,12.062531,,,,,,,,,,,,,,,,,,,,,,,,
4334733198550,,,,,,,,,,10.63681,-72.11786,30.002922,,,,,,,,,,,,,,,,,,
4334721937564,,,,,,,,,,,,,,,,,,,,,,,1024.407,,,,,,,
4334748793032,-19.4729,-6.019226,7.9303894,,,,,,,,,,,,,,,,,,,,,,,,,,,
4334748793032,,,,,,,2.7699432,-1.1223755,1.2301178,,,,,,,,,,,,,,,,,,,,,
4334748793032,,,,,,,,,,,,,-26.751709,-13.069153,-32.946777,,,,,,,,,,,,,,,
4334752973940,,,,-23.035816,-11.788717,4.646326,,,,,,,,,,,,,,,,,,,,,,,,
4334752973940,,,,,,,,,,13.978455,-75.34085,28.781384,,,,,,,,,,,,,,,,,,
4334768934634,-13.679901,-6.613083,1.1507263,,,,,,,,,,,,,,,,,,,,,,,,,,,
4334768934634,,,,,,,,,,,,,-26.010132,-15.307617,-32.774353,,,,,,,,,,,,,,,
4334768934634,,,,,,,2.9007568,0.03215027,6.559677,,,,,,,,,,,,,,,,,,,,,
4334755506899,,,,,,,,,,,,,,,,,,,,,,,1024.407,,,,,,,
4334772779849,,,,-16.392822,-12.780943,-1.3407921,,,,,,,,,,,,,,,,,,,,,,,,
4334772779849,,,,,,,,,,13.393829,-78.008095,34.248203,,,,,,,,,,,,,,,,,,
4334789076235,6.6058655,-8.947357,3.0398407,,,,,,,,,,,,,,,,,,,,,,,,,,,
4334789076235,,,,,,,,,,,,,-26.010132,-17.52472,-31.962585,,,,,,,,,,,,,,,
4334789076235,,,,,,,1.9154968,1.8855743,8.506149,,,,,,,,,,,,,,,,,,,,,
4334792555239,,,,5.6401644,-14.539991,2.551416,,,,,,,,,,,,,,,,,,,,,,,,
4334792555239,,,,,,,,,,7.66333,-77.35104,43.43773,,,,,,,,,,,,,,,,,,
4334789076235,,,,,,,,,,,,,,,,,,,,,,,1024.4015,,,,,,,
4334809217837,18.139008,-4.0820313,-8.399429,,,,,,,,,,,,,,,,,,,,,,,,,,,
4334812300112,,,,13.74581,-7.380998,-11.83931,,,,,,,,,,,,,,,,,,,,,,,,
4334809217837,,,,,,,1.5605164,2.068863,7.7576904,,,,,,,,,,,,,,,,,,,,,
4334809217837,,,,,,,,,,,,,-30.096436,-14.451599,-31.095886,,,,,,,,,,,,,,,
4334812300112,,,,,,,,,,359.61713,-74.33812,52.436756,,,,,,,,,,,,,,,,,,
4334829359439,19.526505,7.438141,-7.9246674,,,,,,,,,,,,,,,,,,,,,,,,,,,
4334829359439,,,,,,,,,,,,,-30.851746,-13.793945,-30.969238,,,,,,,,,,,,,,,
4334829359439,,,,,,,0.5719452,-0.9197693,3.2645264,,,,,,,,,,,,,,,,,,,,,
4334822645571,,,,,,,,,,,,,,,,,,,,,,,1024.397,,,,,,,
4334832136538,,,,13.285758,5.4254484,-8.607536,,,,,,,,,,,,,,,,,,,,,,,,
4334832136538,,,,,,,,,,356.4924,-73.212616,58.034447,,,,,,,,,,,,,,,,,,
4334849501040,19.526505,5.672592,10.798874,,,,,,,,,,,,,,,,,,,,,,,,,,,
4334849501040,,,,,,,-0.5452881,-1.7106628,-2.4284973,,,,,,,,,,,,,,,,,,,,,
4334849501040,,,,,,,,,,,,,-31.440735,-7.583618,-33.854675,,,,,,,,,,,,,,,
4334851881411,,,,13.207468,1.4287715,12.302997,,,,,,,,,,,,,,,,,,,,,,,,
4334851881411,,,,,,,,,,359.03223,-75.1024,58.33361,,,,,,,,,,,,,,,,,,
4334856214907,,,,,,,,,,,,,,,,,,,,,,,1024.397,,,,,,,
4334869642642,19.450073,-1.3210449,8.528915,,,,,,,,,,,,,,,,,,,,,,,,,,,
4334869642642,,,,,,,0.45210266,0.7479248,-6.8876038,,,,,,,,,,,,,,,,,,,,,
4334871656802,,,,13.468953,-6.423788,6.988038,,,,,,,,,,,,,,,,,,,,,,,,
4334869642642,,,,,,,,,,,,,-33.320618,-4.6188354,-31.303406,,,,,,,,,,,,,,,
4334871656802,,,,,,,,,,0.8288269,-77.102325,53.146183,,,,,,,,,,,,,,,,,,
4334889784243,-2.5606995,-6.561096,0.6016998,,,,,,,,,,,,,,,,,,,,,,,,,,,
4334889784243,,,,,,,,,,,,,-33.52356,-4.3777466,-30.969238,,,,,,,,,,,,,,,
4334889784243,,,,,,,0.75904846,1.3179779,-8.390076,,,,,,,,,,,,,,,,,,,,,
4334889784243,,,,,,,,,,,,,,,,,,,,,,,1024.4064,,,,,,,
4334891462710,,,,-9.74494,-12.171097,-1.1278358,,,,,,,,,,,,,,,,,,,,,,,,
4334891462710,,,,,,,,,,1.6275635,-78.615616,44.174526,,,,,,,,,,,,,,,,,,
4334909925845,-18.507141,-6.3746643,13.419678,,,,,,,,,,,,,,,,,,,,,,,,,,,
4334909925845,,,,,,,,,,,,,-31.338501,-10.667419,-30.66101,,,,,,,,,,,,,,,
4334909925845,,,,,,,0.26423645,-0.329422,-5.8408203,,,,,,,,,,,,,,,,,,,,,
4334911207583,,,,-23.718771,-12.141048,13.26425,,,,,,,,,,,,,,,,,,,,,,,,
4334911207583,,,,,,,,,,3.879181,-79.343544,35.693367,,,,,,,,,,,,,,,,,,
4334930067446,-19.4729,-1.6358795,10.4457245,,,,,,,,,,,,,,,,,,,,,,,,,,,
4334930067446,,,,,,,,,,,,,-26.567078,-19.284058,-31.111145,,,,,,,,,,,,,,,
4334930067446,,,,,,,1.459259,1.0497284,0.04548645,,,,,,,,,,,,,,,,,,,,,
4334930982974,,,,,,,,,,5.5339966,-79.97854,31.998337,,,,,,,,,,,,,,,,,,
4334930982974,,,,-23.283007,-7.4125915,9.194655,,,,,,,,,,,,,,,,,,,,,,,,
4334950209048,-19.4729,-5.9066772,-0.458786,,,,,,,,,,,,,,,,,,,,,,,,,,,
4334950209048,,,,,,,1.6621094,2.6547852,4.9829865,,,,,,,,,,,,,,,,,,,,,
4334950209048,,,,,,,,,,,,,-26.342773,-19.680786,-31.134033,,,,,,,,,,,,,,,
4334923353579,,,,,,,,,,,,,,,,,,,,,,,1024.407,,,,,,,
4334950788882,,,,-23.447203,-11.804362,-1.8065249,,,,,,,,,,,,,,,,,,,,,,,,
4334950788882,,,,,,,,,,3.5205994,-79.917725,34.180164,,,,,,,,,,,,,,,,,,
4334970350649,0.22850037,-10.422043,4.009735,,,,,,,,,,,,,,,,,,,,,,,,,,,
4334970350649,,,,,,,,,,,,,-24.691772,-23.008728,-29.18396,,,,,,,,,,,,,,,
4334970564272,,,,-4.1397233,-15.620869,2.8233178,,,,,,,,,,,,,,,,,,,,,,,,
4334970564272,,,,,,,,,,356.36356,-76.478,40.86438,,,,,,,,,,,,,,,,,,
4334970350649,,,,,,,0.16819763,3.6941986,7.6995087,,,,,,,,,,,,,,,,,,,,,
4334956922915,,,,,,,,,,,,,,,,,,,,,,,1024.407,,,,,,,
4334990339663,,,,14.196989,-13.415616,-4.992575,,,,,,,,,,,,,,,,,,,,,,,,
4334990339663,,,,,,,,,,345.92432,-69.96435,49.468372,,,,,,,,,,,,,,,,,,
4334990492251,19.526505,-8.980881,-3.386917,,,,,,,,,,,,,,,,,,,,,,,,,,,
4334990492251,,,,,,,,,,,,,,,,,,,,,,,1024.4036,,,,,,,
4334990492251,,,,,,,-0.37928772,2.714981,8.503586,,,,,,,,,,,,,,,,,,,,,
4334990492251,,,,,,,,,,,,,-25.675964,-19.007874,-32.118225,,,,,,,,,,,,,,,
4335010115054,,,,13.617807,7.2966805,0.58425665,,,,,,,,,,,,,,,,,,,,,,,,
4335010115054,,,,,,,,,,339.20337,-63.453068,56.473476,,,,,,,,,,,,,,,,,,
4335010633853,19.526505,10.778946,2.7835236,,,,,,,,,,,,,,,,,,,,,,,,,,,
4335029890444,,,,13.362964,6.8369274,17.65289,,,,,,,,,,,,,,,,,,,,,,,,
4335010633853,,,,,,,,,,,,,-25.675964,-18.823242,-32.229614,,,,,,,,,,,,,,,
4335010633853,,,,,,,-1.3522034,-0.57839966,5.5122986,,,,,,,,,,,,,,,,,,,,,
4335029890444,,,,,,,,,,337.40027,-60.39863,59.10083,,,,,,,,,,,,,,,,,,
4335024061587,,,,,,,,,,,,,,,,,,,,,,,1024.397,,,,,,,
4335030775454,19.526505,9.7247925,19.295105,,,,,,,,,,,,,,,,,,,,,,,,,,,
4335030775454,,,,,,,-0.38327026,-0.5393982,-0.87823486,,,,,,,,,,,,,,,,,,,,,
4335049665835,,,,13.519412,-0.67346096,13.518773,,,,,,,,,,,,,,,,,,,,,,,,
4335030775454,,,,,,,,,,,,,-25.796509,-11.689758,-36.30829,,,,,,,,,,,,,,,
4335049665835,,,,,,,,,,337.6618,-61.59214,55.88853,,,,,,,,,,,,,,,,,,
4335050917056,19.526505,2.5631866,14.793945,,,,,,,,,,,,,,,,,,,,,,,,,,,
4335050917056,,,,,,,,,,,,,-28.347778,-6.227112,-34.742737,,,,,,,,,,,,,,,
4335050917056,,,,,,,1.8566437,2.3418884,-5.3298798,,,,,,,,,,,,,,,,,,,,,
4335069471743,,,,14.059166,-6.8618274,2.910105,,,,,,,,,,,,,,,,,,,,,,,,
4335069471743,,,,,,,,,,336.31094,-64.362656,48.574028,,,,,,,,,,,,,,,,,,
4335057630923,,,,,,,,,,,,,,,,,,,,,,,1024.397,,,,,,,
4335071058657,18.557144,-2.708847,4.5918274,,,,,,,,,,,,,,,,,,,,,,,,,,,
4335071058657,,,,,,,,,,,,,-28.308105,-6.538391,-34.780884,,,,,,,,,,,,,,,
4335071058657,,,,,,,2.9467468,4.0391083,-7.460663,,,,,,,,,,,,,,,,,,,,,
4335089247134,,,,2.8461204,-10.160361,-2.1861122,,,,,,,,,,,,,,,,,,,,,,,,
4335089247134,,,,,,,,,,334.93658,-67.74138,39.31787,,,,,,,,,,,,,,,,,,
4335091200259,,,,,,,,,,,,,,,,,,,,,,,1024.397,,,,,,,
4335091200259,6.201294,-5.23555,0.13111877,,,,,,,,,,,,,,,,,,,,,,,,,,,
4335091200259,,,,,,,3.0880585,3.6575165,-8.056519,,,,,,,,,,,,,,,,,,,,,
4335091200259,,,,,,,,,,,,,-26.856995,-11.091614,-35.36377,,,,,,,,,,,,,,,
4335109022524,,,,-8.74958,-13.627313,-0.14315772,,,,,,,,,,,,,,,,,,,,,,,,
4335109022524,,,,,,,,,,334.3882,-71.222626,29.943417,,,,,,,,,,,,,,,,,,
4335111341860,-6.402603,-8.135147,0.876709,,,,,,,,,,,,,,,,,,,,,,,,,,,
4335111341860,,,,,,,,,,,,,-17.826843,-20.184326,-36.54785,,,,,,,,,,,,,,,
4335111341860,,,,,,,3.2776031,2.9306946,-7.165573,,,,,,,,,,,,,,,,,,,,,
4335128797915,,,,-18.333723,-17.487919,-8.205596,,,,,,,,,,,,,,,,,,,,,,,,
4335128797915,,,,,,,,,,334.14392,-75.159836,21.717941,,,,,,,,,,,,,,,,,,
4335124769595,,,,,,,,,,,,,,,,,,,,,,,1024.397,,,,,,,
4335131483462,-16.23085,-11.435944,-8.290878,,,,,,,,,,,,,,,,,,,,,,,,,,,
4335131483462,,,,,,,3.8596344,3.4202423,-5.1450195,,,,,,,,,,,,,,,,,,,,,
4335148573306,,,,-21.366068,-19.797606,-20.789295,,,,,,,,,,,,,,,,,,,,,,,,
4335131483462,,,,,,,,,,,,,-16.966248,-21.098328,-36.369324,,,,,,,,,,,,,,,
4335148573306,,,,,,,,,,333.17645,-79.03896,15.886056,,,,,,,,,,,,,,,,,,
4335158338931,,,,,,,,,,,,,,,,,,,,,,,1024.397,,,,,,,
4335151625064,-18.737534,-13.225662,-19.524445,,,,,,,,,,,,,,,,,,,,,,,,,,,
4335151625064,,,,,,,2.407196,4.0984497,-2.0456696,,,,,,,,,,,,,,,,,,,,,
4335168348696,,,,-16.306553,-19.48495,-20.716028,,,,,,,,,,,,,,,,,,,,,,,,
4335151625064,,,,,,,,,,,,,-9.986877,-27.79541,-34.779358,,,,,,,,,,,,,,,
4335168348696,,,,,,,,,,330.8623,-79.58795,13.633354,,,,,,,,,,,,,,,,,,
4335171766665,-12.979462,-13.542038,-19.315536,,,,,,,,,,,,,,,,,,,,,,,,,,,
4335171766665,,,,,,,,,,,,,-1.7959595,-32.629395,-32.281494,,,,,,,,,,,,,,,
4335171766665,,,,,,,-2.5948334,3.0425568,1.1746216,,,,,,,,,,,,,,,,,,,,,
4335188124087,,,,-6.455079,-22.307436,-20.052586,,,,,,,,,,,,,,,,,,,,,,,,
4335188124087,,,,,,,,,,328.3929,-74.284325,15.226149,,,,,,,,,,,,,,,,,,
4335191908267,-2.2630463,-15.558533,-11.845352,,,,,,,,,,,,,,,,,,,,,,,,,,,
4335191908267,,,,,,,,,,,,,-1.2527466,-32.855225,-32.12433,,,,,,,,,,,,,,,
4335207899478,,,,5.7682323,-18.623592,12.670311,,,,,,,,,,,,,,,,,,,,,,,,
4335191908267,,,,,,,-7.912033,0.9306793,3.837082,,,,,,,,,,,,,,,,,,,,,
4335207899478,,,,,,,,,,324.92072,-62.78527,20.468292,,,,,,,,,,,,,,,,,,
4335191908267,,,,,,,,,,,,,,,,,,,,,,,1024.3958,,,,,,,
4335212049868,10.480301,-9.2734375,16.33403,,,,,,,,,,,,,,,,,,,,,,,,,,,
4335212049868,,,,,,,-10.10527,-1.6300964,5.6689453,,,,,,,,,,,,,,,,,,,,,
4335227674868,,,,16.364998,0.63082933,15.769727,,,,,,,,,,,,,,,,,,,,,,,,
4335212049868,,,,,,,,,,,,,0.30670166,-32.359314,-33.148193,,,,,,,,,,,,,,,
4335227674868,,,,,,,,,,321.9867,-51.048874,28.209307,,,,,,,,,,,,,,,,,,
4335232191470,19.526505,8.190399,19.47496,,,,,,,,,,,,,,,,,,,,,,,,,,,
4335232191470,,,,,,,-6.805176,-2.156433,5.764099,,,,,,,,,,,,,,,,,,,,,
4335247450259,,,,15.706533,14.321349,15.409468,,,,,,,,,,,,,,,,,,,,,,,,
4335232191470,,,,,,,,,,,,,-2.4642944,-26.911926,-39.500427,,,,,,,,,,,,,,,
4335225477603,,,,,,,,,,,,,,,,,,,,,,,1024.387,,,,,,,
4335247450259,,,,,,,,,,319.71878,-43.979595,34.063816,,,,,,,,,,,,,,,,,,
4335252333071,19.526505,17.64624,19.47496,,,,,,,,,,,,,,,,,,,,,,,,,,,
4335267225649,,,,15.517683,12.049927,15.240371,,,,,,,,,,,,,,,,,,,,,,,,
4335252333071,,,,,,,,,,,,,-3.8253784,-23.384094,-41.160583,,,,,,,,,,,,,,,
4335252333071,,,,,,,-1.4905548,-0.3754425,2.719284,,,,,,,,,,,,,,,,,,,,,
4335267225649,,,,,,,,,,317.61588,-41.688885,35.258522,,,,,,,,,,,,,,,,,,
4335259046939,,,,,,,,,,,,,,,,,,,,,,,1024.387,,,,,,,
4335272474673,19.526505,14.471146,19.47496,,,,,,,,,,,,,,,,,,,,,,,,,,,
4335272474673,,,,,,,0.44548035,1.9950867,-0.9133301,,,,,,,,,,,,,,,,,,,,,
4335272474673,,,,,,,,,,,,,-8.418274,-11.546326,-46.138,,,,,,,,,,,,,,,
4335287001040,,,,15.758713,6.743106,15.045329,,,,,,,,,,,,,,,,,,,,,,,,
4335287001040,,,,,,,,,,316.34604,-42.02084,32.28893,,,,,,,,,,,,,,,,,,
4335292616274,17.579483,9.014374,18.863297,,,,,,,,,,,,,,,,,,,,,,,,,,,
4335292616274,,,,,,,,,,,,,-9.643555,-8.581543,-45.898438,,,,,,,,,,,,,,,
4335292616274,,,,,,,1.8481293,3.2635498,-3.462906,,,,,,,,,,,,,,,,,,,,,
4335292616274,,,,,,,,,,,,,,,,,,,,,,,1024.387,,,,,,,
4335306776431,,,,9.451249,0.22414637,12.797324,,,,,,,,,,,,,,,,,,,,,,,,
4335306776431,,,,,,,,,,315.9148,-44.546085,26.885633,,,,,,,,,,,,,,,,,,
4335312757876,8.895905,3.0529022,14.515747,,,,,,,,,,,,,,,,,,,,,,,,,,,
4335312757876,,,,,,,,,,,,,-8.532715,-9.701538,-45.500183,,,,,,,,,,,,,,,
4335312757876,,,,,,,3.3327484,3.3491516,-4.754654,,,,,,,,,,,,,,,,,,,,,
4335326551821,,,,-2.295372,-5.70917,3.6787424,,,,,,,,,,,,,,,,,,,,,,,,
4335326551821,,,,,,,,,,316.75378,-48.960426,20.513147,,,,,,,,,,,,,,,,,,
4335326185610,,,,,,,,,,,,,,,,,,,,,,,1024.387,,,,,,,
4335332899478,-2.4812622,-1.4095306,6.4354095,,,,,,,,,,,,,,,,,,,,,,,,,,,
4335332899478,,,,,,,3.9807434,2.791336,-5.0082245,,,,,,,,,,,,,,,,,,,,,
4335332899478,,,,,,,,,,,,,-3.666687,-13.090515,-44.111633,,,,,,,,,,,,,,,
4335346327212,,,,-9.869262,-8.445351,-1.0165792,,,,,,,,,,,,,,,,,,,,,,,,
4335346327212,,,,,,,,,,318.08804,-53.761433,14.189318,,,,,,,,,,,,,,,,,,
4335353041079,-8.963684,-2.616745,1.0388947,,,,,,,,,,,,,,,,,,,,,,,,,,,
4335353041079,,,,,,,,,,,,,1.210022,-14.804077,-43.110657,,,,,,,,,,,,,,,
4335366194155,,,,-11.629001,-7.8624015,-6.532935,,,,,,,,,,,,,,,,,,,,,,,,
4335366194155,,,,,,,,,,318.75833,-57.875725,8.645351,,,,,,,,,,,,,,,,,,
4335353041079,,,,,,,3.588089,2.6268616,-4.0513153,,,,,,,,,,,,,,,,,,,,,
4335359754946,,,,,,,,,,,,,,,,,,,,,,,1024.387,,,,,,,
4335373182681,-10.081314,-1.401123,-3.646759,,,,,,,,,,,,,,,,,,,,,,,,,,,
4335373182681,,,,,,,,,,,,,3.5171509,-17.129517,-42.35382,,,,,,,,,,,,,,,
4335373182681,,,,,,,2.7522125,2.7305145,-2.623993,,,,,,,,,,,,,,,,,,,,,
4335385908511,,,,-9.720363,-6.3512316,-8.450611,,,,,,,,,,,,,,,,,,,,,,,,
4335385908511,,,,,,,,,,318.52267,-60.936447,4.4819093,,,,,,,,,,,,,,,,,,
4335393324282,,,,,,,,,,,,,,,,,,,,,,,1024.387,,,,,,,
4335393324282,-9.199219,0.08023071,-5.5460052,,,,,,,,,,,,,,,,,,,,,,,,,,,
4335393324282,,,,,,,1.885788,2.1399841,-1.3564148,,,,,,,,,,,,,,,,,,,,,
4335393324282,,,,,,,,,,,,,8.786011,-22.434998,-40.05432,,,,,,,,,,,,,,,
4335405683901,,,,-9.457311,-5.4349833,-9.419353,,,,,,,,,,,,,,,,,,,,,,,,
4335405683901,,,,,,,,,,318.14633,-63.175514,1.8481086,,,,,,,,,,,,,,,,,,
4335413465884,-8.256668,1.7208862,-5.2738953,,,,,,,,,,,,,,,,,,,,,,,,,,,
4335413465884,,,,,,,,,,,,,10.562134,-24.220276,-38.516235,,,,,,,,,,,,,,,
4335413465884,,,,,,,1.206955,1.2579498,-0.3684082,,,,,,,,,,,,,,,,,,,,,
4335425489810,,,,-6.829778,-2.9307122,-6.6158795,,,,,,,,,,,,,,,,,,,,,,,,
4335425489810,,,,,,,,,,317.8683,-64.635216,0.7068417,,,,,,,,,,,,,,,,,,
4335433607485,-6.092331,3.5943909,-2.8628693,,,,,,,,,,,,,,,,,,,,,,,,,,,
4335433607485,,,,,,,,,,,,,12.277222,-24.705505,-38.043213,,,,,,,,,,,,,,,
4335433607485,,,,,,,0.6190491,0.7563019,0.19384766,,,,,,,,,,,,,,,,,,,,,
4335445234683,,,,-5.198921,-2.174478,-4.5493674,,,,,,,,,,,,,,,,,,,,,,,,
4335445234683,,,,,,,,,,317.6665,-65.41913,0.34783122,,,,,,,,,,,,,,,,,,
4335426893618,,,,,,,,,,,,,,,,,,,,,,,1024.387,,,,,,,
4335453749087,-7.6183624,3.3968506,-2.53479,,,,,,,,,,,,,,,,,,,,,,,,,,,
4335465040591,,,,-10.867779,-3.6777968,-6.4657035,,,,,,,,,,,,,,,,,,,,,,,,
4335465040591,,,,,,,,,,317.37262,-65.52135,-0.12070319,,,,,,,,,,,,,,,,,,
4335453749087,,,,,,,0.0037384033,1.0898438,0.48486328,,,,,,,,,,,,,,,,,,,,,
4335453749087,,,,,,,,,,,,,14.807129,-25.904846,-36.590576,,,,,,,,,,,,,,,
4335473890689,-8.082611,2.9658508,-1.0383453,,,,,,,,,,,,,,,,,,,,,,,,,,,
4335473890689,,,,,,,,,,,,,14.903259,-26.574707,-35.56366,,,,,,,,,,,,,,,
4335473890689,,,,,,,-1.0440521,1.5151367,1.4857788,,,,,,,,,,,,,,,,,,,,,
4335460462954,,,,,,,,,,,,,,,,,,,,,,,1024.387,,,,,,,
4335484815981,,,,-4.6932344,-2.6179967,-0.78573847,,,,,,,,,,,,,,,,,,,,,,,,
4335484815981,,,,,,,,,,315.42966,-64.208374,0.5617784,,,,,,,,,,,,,,,,,,
4335494032290,-0.06147766,5.072983,4.3798523,,,,,,,,,,,,,,,,,,,,,,,,,,,
4335494032290,,,,,,,,,,,,,15.214539,-26.731873,-35.56366,,,,,,,,,,,,,,,
4335494032290,,,,,,,-2.1489563,1.5509644,2.853531,,,,,,,,,,,,,,,,,,,,,
4335504591372,,,,4.827879,0.88332176,3.6560986,,,,,,,,,,,,,,,,,,,,,,,,
4335504591372,,,,,,,,,,312.00073,-61.48545,2.8655212,,,,,,,,,,,,,,,,,,
4335494032290,,,,,,,,,,,,,,,,,,,,,,,1024.387,,,,,,,
4335514173892,8.189514,8.032486,9.685211,,,,,,,,,,,,,,,,,,,,,,,,,,,
4335524366763,,,,10.779218,3.5060773,8.976347,,,,,,,,,,,,,,,,,,,,,,,,
4335514173892,,,,,,,-2.968979,1.9102173,3.1052704,,,,,,,,,,,,,,,,,,,,,
4335514173892,,,,,,,,,,,,,15.733337,-27.238464,-35.403442,,,,,,,,,,,,,,,
4335524366763,,,,,,,,,,307.50232,-57.565945,5.215398,,,,,,,,,,,,,,,,,,
4335534315493,10.413727,9.293289,15.214401,,,,,,,,,,,,,,,,,,,,,,,,,,,
4335534315493,,,,,,,,,,,,,15.905762,-27.583313,-35.235596,,,,,,,,,,,,,,,
4335534315493,,,,,,,-2.9015045,1.9325256,2.3982391,,,,,,,,,,,,,,,,,,,,,
4335527601626,,,,,,,,,,,,,,,,,,,,,,,1024.387,,,,,,,
4335544142153,,,,8.649717,3.7834234,13.668856,,,,,,,,,,,,,,,,,,,,,,,,
4335544142153,,,,,,,,,,303.1907,-53.530083,6.5287504,,,,,,,,,,,,,,,,,,
4335554457095,10.494522,9.276138,18.652756,,,,,,,,,,,,,,,,,,,,,,,,,,,
4335563917544,,,,10.534153,3.8785467,15.088828,,,,,,,,,,,,,,,,,,,,,,,,
4335554457095,,,,,,,-1.8270569,1.2866669,1.8427734,,,,,,,,,,,,,,,,,,,,,
4335554457095,,,,,,,,,,,,,15.46936,-25.917053,-35.66284,,,,,,,,,,,,,,,
4335563917544,,,,,,,,,,299.5921,-50.72428,7.650084,,,,,,,,,,,,,,,,,,
4335561170962,,,,,,,,,,,,,,,,,,,,,,,1024.387,,,,,,,
4335574598696,12.962585,10.449234,19.47496,,,,,,,,,,,,,,,,,,,,,,,,,,,
4335583692935,,,,13.135391,6.1365194,14.972334,,,,,,,,,,,,,,,,,,,,,,,,
4335574598696,,,,,,,-0.20568848,0.53045654,1.4425354,,,,,,,,,,,,,,,,,,,,,
4335574598696,,,,,,,,,,,,,14.709473,-23.843384,-36.763,,,,,,,,,,,,,,,
4335583692935,,,,,,,,,,296.96912,-49.866177,8.9691305,,,,,,,,,,,,,,,,,,
4335594740298,10.923965,9.62767,14.820053,,,,,,,,,,,,,,,,,,,,,,,,,,,
4335594740298,,,,,,,,,,,,,14.402771,-23.379517,-37.36725,,,,,,,,,,,,,,,
4335603498843,,,,7.072658,2.6916409,6.7560916,,,,,,,,,,,,,,,,,,,,,,,,
4335594740298,,,,,,,1.6021729,-0.14996338,0.66433716,,,,,,,,,,,,,,,,,,,,,
4335594740298,,,,,,,,,,,,,,,,,,,,,,,1024.387,,,,,,,
4335603498843,,,,,,,,,,296.03677,-51.35578,9.912874,,,,,,,,,,,,,,,,,,
4335614881899,4.820404,5.75119,7.8766327,,,,,,,,,,,,,,,,,,,,,,,,,,,
4335614881899,,,,,,,,,,,,,14.595032,-23.57483,-37.74414,,,,,,,,,,,,,,,
4335614881899,,,,,,,2.070404,-0.8053436,0.027389526,,,,,,,,,,,,,,,,,,,,,
4335623274233,,,,0.9610982,-1.6631904,1.3487754,,,,,,,,,,,,,,,,,,,,,,,,
4335623274233,,,,,,,,,,296.48346,-53.775936,10.509782,,,,,,,,,,,,,,,,,,
4335628309634,,,,,,,,,,,,,,,,,,,,,,,1024.387,,,,,,,
4335635023501,1.3834839,3.465088,5.056946,,,,,,,,,,,,,,,,,,,,,,,,,,,
4335635023501,,,,,,,1.4728699,-1.3133087,-0.13516235,,,,,,,,,,,,,,,,,,,,,
4335643049624,,,,-0.5915232,-2.6330342,0.8418832,,,,,,,,,,,,,,,,,,,,,,,,
4335635023501,,,,,,,,,,,,,14.935303,-24.916077,-37.63275,,,,,,,,,,,,,,,
4335643049624,,,,,,,,,,297.63782,-55.669167,11.193457,,,,,,,,,,,,,,,,,,
4335655165103,0.06712341,2.8770294,3.5371857,,,,,,,,,,,,,,,,,,,,,,,,,,,
4335655165103,,,,,,,1.0405121,-1.3217316,-0.18655396,,,,,,,,,,,,,,,,,,,,,
4335662855532,,,,-1.8390523,-3.0970478,-1.0063021,,,,,,,,,,,,,,,,,,,,,,,,
4335655165103,,,,,,,,,,,,,15.071106,-25.733948,-37.36725,,,,,,,,,,,,,,,
4335661878970,,,,,,,,,,,,,,,,,,,,,,,1024.387,,,,,,,
4335662855532,,,,,,,,,,299.086,-57.132023,11.812734,,,,,,,,,,,,,,,,,,
4335675306704,-1.7473297,1.7923126,0.7754059,,,,,,,,,,,,,,,,,,,,,,,,,,,
4335675306704,,,,,,,,,,,,,13.807678,-27.217102,-36.12671,,,,,,,,,,,,,,,
4335675306704,,,,,,,0.6879425,-0.53427124,-0.098358154,,,,,,,,,,,,,,,,,,,,,
4335682630923,,,,-4.0104756,-4.612314,-4.0254965,,,,,,,,,,,,,,,,,,,,,,,,
4335682630923,,,,,,,,,,300.1096,-58.16307,11.993397,,,,,,,,,,,,,,,,,,
4335695448306,-2.8145447,0.83662415,-2.738968,,,,,,,,,,,,,,,,,,,,,,,,,,,
4335695448306,,,,,,,,,,,,,11.550903,-28.52478,-35.18524,,,,,,,,,,,,,,,
4335695448306,,,,,,,0.10661316,0.56015015,0.28497314,,,,,,,,,,,,,,,,,,,,,
4335702406314,,,,-4.3984036,-5.223054,-7.6004987,,,,,,,,,,,,,,,,,,,,,,,,
4335702406314,,,,,,,,,,300.0596,-58.44245,11.853735,,,,,,,,,,,,,,,,,,
4335715589907,-1.4233551,1.6739349,-2.6503143,,,,,,,,,,,,,,,,,,,,,,,,,,,
4335715589907,,,,,,,,,,,,,10.728455,-28.761292,-35.0708,,,,,,,,,,,,,,,
4335715589907,,,,,,,-0.7529602,1.2322388,0.8423157,,,,,,,,,,,,,,,,,,,,,
4335695448306,,,,,,,,,,,,,,,,,,,,,,,1024.387,,,,,,,
4335722212222,,,,-2.080904,-3.550375,-5.625366,,,,,,,,,,,,,,,,,,,,,,,,
4335722212222,,,,,,,,,,298.80542,-57.54707,11.836742,,,,,,,,,,,,,,,,,,
4335735731509,2.1102448,2.620575,2.9266815,,,,,,,,,,,,,,,,,,,,,,,,,,,
4335741987612,,,,1.846927,-2.7842808,1.3437762,,,,,,,,,,,,,,,,,,,,,,,,
4335735731509,,,,,,,,,,,,,10.955811,-28.761292,-34.846497,,,,,,,,,,,,,,,
4335735731509,,,,,,,-1.7193604,-0.21838379,1.0457306,,,,,,,,,,,,,,,,,,,,,
4335741987612,,,,,,,,,,297.6841,-55.5004,12.78651,,,,,,,,,,,,,,,,,,
4335729017642,,,,,,,,,,,,,,,,,,,,,,,1024.387,,,,,,,
4335755887462,11.740036,7.5626373,15.220276,,,,,,,,,,,,,,,,,,,,,,,,,,,
4335755887462,,,,,,,-4.8244476,-0.33319092,0.9650421,,,,,,,,,,,,,,,,,,,,,
4335755887462,,,,,,,,,,,,,13.05542,-27.934265,-35.087585,,,,,,,,,,,,,,,
4335761777355,,,,13.52119,4.3131375,15.13974,,,,,,,,,,,,,,,,,,,,,,,,
4335761777355,,,,,,,,,,296.3809,-50.52908,14.484265,,,,,,,,,,,,,,,,,,
4335776029064,1.8799438,5.2683563,18.629242,,,,,,,,,,,,,,,,,,,,,,,,,,,
4335776029064,,,,,,,,,,,,,13.902283,-27.583313,-35.235596,,,,,,,,,,,,,,,
4335776029064,,,,,,,-3.848755,1.0124359,-1.0746002,,,,,,,,,,,,,,,,,,,,,
4335781552746,,,,-4.9390593,-1.2685609,13.422903,,,,,,,,,,,,,,,,,,,,,,,,
4335781552746,,,,,,,,,,295.65253,-44.930367,13.261987,,,,,,,,,,,,,,,,,,
4335762601330,,,,,,,,,,,,,,,,,,,,,,,1024.387,,,,,,,
4335796170666,0.17778015,5.816925,14.805191,,,,,,,,,,,,,,,,,,,,,,,,,,,
4335796170666,,,,,,,,,,,,,11.555481,-25.222778,-36.810303,,,,,,,,,,,,,,,
4335796170666,,,,,,,-0.5377197,-0.12911987,-0.49319458,,,,,,,,,,,,,,,,,,,,,
4335801328136,,,,-0.08631885,1.8255405,8.511314,,,,,,,,,,,,,,,,,,,,,,,,
4335801328136,,,,,,,,,,295.8661,-43.33373,12.139022,,,,,,,,,,,,,,,,,,
4335796170666,,,,,,,,,,,,,,,,,,,,,,,1024.387,,,,,,,
4335816312267,3.799881,8.960709,16.589111,,,,,,,,,,,,,,,,,,,,,,,,,,,
4335816312267,,,,,,,1.7580719,-1.1813507,0.306427,,,,,,,,,,,,,,,,,,,,,
4335821103527,,,,2.9359035,4.7972784,12.583458,,,,,,,,,,,,,,,,,,,,,,,,
4335816312267,,,,,,,,,,,,,11.2335205,-21.84143,-38.85956,,,,,,,,,,,,,,,
4335821103527,,,,,,,,,,296.05676,-44.69791,13.107347,,,,,,,,,,,,,,,,,,
4335836453869,1.8097229,8.046097,11.31105,,,,,,,,,,,,,,,,,,,,,,,,,,,
4335836453869,,,,,,,,,,,,,11.39679,-21.025085,-39.33716,,,,,,,,,,,,,,,
4335840909435,,,,-0.679288,2.3952603,4.7720127,,,,,,,,,,,,,,,,,,,,,,,,
4335836453869,,,,,,,2.7604828,0.18138123,0.2723236,,,,,,,,,,,,,,,,,,,,,
4335829740001,,,,,,,,,,,,,,,,,,,,,,,1024.387,,,,,,,
4335840909435,,,,,,,,,,296.01358,-47.542984,13.564789,,,,,,,,,,,,,,,,,,
4335860684826,,,,,,,,,,295.5961,-50.260715,13.270733,,,,,,,,,,,,,,,,,,
4335856595470,-1.0421906,5.1427765,5.343109,,,,,,,,,,,,,,,,,,,,,,,,,,,
4335856595470,,,,,,,2.2686462,0.26939392,0.079330444,,,,,,,,,,,,,,,,,,,,,
4335856595470,,,,,,,,,,,,,9.806824,-21.025085,-39.596558,,,,,,,,,,,,,,,
4335860684826,,,,-3.2290244,-0.87314177,-0.2176032,,,,,,,,,,,,,,,,,,,,,,,,
4335863309337,,,,,,,,,,,,,,,,,,,,,,,1024.387,,,,,,,
4335876737072,-0.43148804,4.154724,1.0270691,,,,,,,,,,,,,,,,,,,,,,,,,,,
4335876737072,,,,,,,1.1097412,0.529068,-0.14012146,,,,,,,,,,,,,,,,,,,,,
4335876737072,,,,,,,,,,,,,11.289978,-22.937012,-38.598633,,,,,,,,,,,,,,,
4335880460216,,,,-1.7673293,-1.4381437,-4.031759,,,,,,,,,,,,,,,,,,,,,,,,
4335880460216,,,,,,,,,,295.54926,-51.9731,12.896829,,,,,,,,,,,,,,,,,,
4335896878673,-1.4423981,3.259552,-3.24646,,,,,,,,,,,,,,,,,,,,,,,,,,,
4335896878673,,,,,,,,,,,,,11.730957,-23.379517,-38.352966,,,,,,,,,,,,,,,
4335896878673,,,,,,,0.070632935,1.4522858,-0.44335938,,,,,,,,,,,,,,,,,,,,,
